"Time (s)","Linear Acceleration x (m/s^2)","Linear Acceleration y (m/s^2)","Linear Acceleration z (m/s^2)","Absolute acceleration (m/s^2)"
1.235891668E-2,-9.371516165E-2,1.943016605E-1,-9.933016062E-2,2.374913632E-1
2.239591668E-2,-1.088102422E-1,1.454722935E-1,1.301911801E-1,2.234985467E-1
3.243191667E-2,-9.933838098E-3,4.266932532E-2,3.226160306E-1,3.255771117E-1
4.246791668E-2,2.773644732E-3,-3.937018007E-2,3.169249356E-1,3.193730092E-1
5.250491668E-2,-1.551146285E-2,-8.547562167E-2,1.338334107E-1,1.595558498E-1
6.254091667E-2,-8.300573037E-2,-8.353843912E-2,-1.114362359E-1,1.621316032E-1
7.257791667E-2,-7.194315010E-2,-3.258682519E-2,-2.669867903E-1,2.784235339E-1
8.261391667E-2,-4.957884758E-2,-2.847155482E-3,-3.901694977E-1,3.933171816E-1
9.265091667E-2,-5.533907220E-2,2.383895203E-2,-4.964519978E-1,5.000952855E-1
1.026869167E-1,4.754264153E-2,4.977413088E-2,-4.022603703E-1,4.081068149E-1
1.127239167E-1,1.035519417E-1,8.617070943E-2,-2.660927510E-1,2.982511491E-1
1.227599167E-1,9.996586259E-2,1.389488474E-1,-7.857137561E-2,1.883438795E-1
1.327969167E-1,1.375289607E-1,8.859321088E-2,1.453641200E-1,2.188462918E-1
1.428329167E-1,2.237566987E-1,-4.276814327E-2,1.950525892E-1,2.999027957E-1
1.528699167E-1,2.710286964E-1,-9.161929116E-2,2.037661099E-1,3.512424751E-1
1.629059167E-1,2.273994227E-1,-1.072499219E-1,2.324695069E-1,3.424253419E-1
1.729429167E-1,1.815789598E-1,-1.394118007E-1,1.656399250E-1,2.825653085E-1
1.829789167E-1,1.481128869E-1,-1.378828999E-1,-1.744633734E-2,2.031095666E-1
1.930159167E-1,1.125273081E-1,-5.368957266E-2,-1.436467928E-1,1.902087441E-1
2.030519167E-1,7.867900092E-2,5.174537346E-2,-2.980466151E-1,3.125695981E-1
2.130889167E-1,2.207880308E-2,9.325446501E-2,-4.183828980E-1,4.292180310E-1
2.231249167E-1,-2.927522720E-2,1.369089000E-1,-3.977194226E-1,4.216418207E-1
2.331619167E-1,2.949540228E-2,1.485631317E-1,-2.282238436E-1,2.739107622E-1
2.431979167E-1,7.444363422E-2,9.422422573E-2,-6.206059277E-2,1.351723957E-1
2.532349167E-1,6.751775346E-2,2.155561432E-2,2.350697637E-2,7.467174485E-2
2.632709167E-1,1.627461014E-2,-2.469630003E-2,7.047415137E-2,7.642889625E-2
2.733069167E-1,-2.743650628E-2,-5.775689587E-2,4.930840015E-2,8.074614061E-2
2.833439167E-1,-8.026920604E-2,-8.586168408E-2,-7.410234869E-2,1.389479482E-1
2.933799167E-1,-1.486178397E-1,-9.190828979E-2,-1.431667364E-1,2.259006649E-1
3.034169167E-1,-1.925969596E-1,-6.734779134E-2,-1.542705989E-1,2.557904055E-1
3.134529167E-1,-1.795603365E-1,-4.544075936E-2,-9.929156899E-2,2.101561151E-1
3.234899167E-1,-1.807481253E-1,5.183118135E-3,-5.795760155E-3,1.809152850E-1
3.335259167E-1,-2.553200236E-1,-1.207552359E-2,6.448835671E-2,2.636150240E-1
3.435629167E-1,-1.728808793E-1,-7.568928301E-2,1.397554708E-1,2.348366615E-1
3.535989167E-1,-7.056869354E-2,-1.087748757E-1,2.225730944E-1,2.575862893E-1
3.636359167E-1,7.160604442E-2,-9.845103174E-2,1.618474209E-1,2.025206629E-1
3.736719167E-1,1.900844293E-1,-8.378738433E-2,3.090838194E-2,2.100184376E-1
3.837089167E-1,2.436146836E-1,-3.129064366E-2,-1.284949028E-1,2.771969670E-1
3.937449167E-1,1.768949381E-1,9.785213068E-2,-2.660664386E-1,3.341529714E-1
4.037819167E-1,3.891267199E-2,2.116608743E-1,-3.757093334E-1,4.329803979E-1
4.138179167E-1,-9.343709914E-2,2.464382127E-1,-2.829473501E-1,3.866800837E-1
4.238549167E-1,-1.833049117E-1,2.157346295E-1,-1.668888903E-1,3.286244402E-1
4.338909167E-1,-4.043353278E-1,1.349728869E-1,-2.083012104E-1,4.744408623E-1
4.439279167E-1,-4.927928102E-1,2.138063639E-1,-4.566488314E-1,7.050433109E-1
4.539639167E-1,-8.954905522E-1,4.178120635E-2,2.820112109E-3,8.964691580E-1
4.640009167E-1,-1.097721914E0,-1.478980109E-3,-7.244758666E-2,1.100111013E0
4.740369167E-1,-7.283854611E-1,1.602749585E-1,-3.910091579E-1,8.420935838E-1
4.840739167E-1,-4.360007049E-1,2.065193445E-1,-5.466626233E-1,7.291000467E-1
4.941099167E-1,-4.316508881E-1,1.566904691E-1,-6.617837745E-1,8.055011834E-1
5.041459167E-1,-6.092675187E-1,5.668765940E-2,-7.446189398E-1,9.637830490E-1
5.141829167E-1,-6.910119590E-1,-1.174617916E-2,-3.539693856E-1,7.764855608E-1
5.242189167E-1,-5.173210393E-1,-5.905980170E-2,3.933837122E-1,6.525793920E-1
5.342559167E-1,-1.838883176E-1,1.128236340E-1,1.701539755E-4,2.157408508E-1
5.442919167E-1,3.956504767E-2,2.612207048E-2,-1.514329451E-1,1.586811030E-1
5.543289167E-1,6.115085372E-1,-8.620476946E-2,-8.002820939E-1,1.010853789E0
5.643649167E-1,1.208143951E0,-2.588696124E-1,-1.146448370E0,1.685517472E0
5.744019167E-1,1.562180141E0,-3.041693808E-1,-1.312937896E0,2.063184849E0
5.844379167E-1,1.518990852E0,-2.194006144E-1,-1.198019643E0,1.946977376E0
5.944749167E-1,1.490056782E0,-3.381259894E-1,-6.700026208E-1,1.668383023E0
6.045109167E-1,1.735464131E0,-3.631945012E-1,-2.242512453E-1,1.787186229E0
6.145479167E-1,1.957103571E0,-2.340412019E-1,7.229263544E-2,1.972373164E0
6.245839167E-1,1.941749660E0,-2.775731377E-1,1.762473589E-1,1.969391205E0
6.346209167E-1,1.808825199E0,-4.943721431E-1,2.019031870E-1,1.886005650E0
6.446569167E-1,1.526188189E0,-7.774430888E-1,2.620821458E-1,1.732730561E0
6.546939167E-1,1.248321193E0,-1.030564157E0,5.546329629E-1,1.711135882E0
6.647299167E-1,8.414558476E-1,-9.768173551E-1,9.624505270E-1,1.608891266E0
6.747669167E-1,5.306682958E-1,-6.677132166E-1,1.288688908E0,1.545370143E0
6.848029167E-1,3.709957832E-1,-3.262275268E-1,1.554096950E0,1.630729775E0
6.948389167E-1,3.476398478E-1,-1.010326962E-1,1.682650325E0,1.721154608E0
7.048759167E-1,2.740077249E-1,-5.775265207E-2,1.603048085E0,1.627322576E0
7.149119167E-1,1.423102563E-1,-9.640874550E-2,1.435323628E0,1.445579735E0
7.249489167E-1,-5.420544326E-2,-9.977226494E-2,1.254179810E0,1.259309228E0
7.349846667E-1,-2.847296546E-1,-1.048840196E-1,1.023401903E0,1.067437628E0
7.450216667E-1,-4.375865429E-1,-1.759730697E-1,7.096180916E-1,8.520600564E-1
7.550576667E-1,-5.096789843E-1,-3.108818747E-1,4.282383800E-1,7.347164876E-1
7.650946667E-1,-5.309577329E-1,-4.889384718E-1,1.910992867E-1,7.466564677E-1
7.751306667E-1,-5.427254372E-1,-6.401146511E-1,7.788491249E-4,8.392248050E-1
7.851676667E-1,-4.832505928E-1,-7.631360485E-1,-1.339684814E-1,9.131567872E-1
7.952036667E-1,-2.643615732E-1,-8.305044512E-1,-2.402913272E-1,9.040821903E-1
8.052406667E-1,-1.310155827E-1,-4.180015864E-1,-4.238944834E-1,6.095711134E-1
8.152766667E-1,-1.578627993E-1,-2.536449060E-3,-7.166025907E-1,7.337890500E-1
8.253136667E-1,4.147843022E-2,2.020390983E-1,-1.004156962E0,1.025120218E0
8.353496667E-1,3.767750250E-1,2.064307044E-1,-1.234570003E0,1.307186348E0
8.453866667E-1,7.986505745E-1,1.518182766E-1,-1.408189039E0,1.626003659E0
8.554226667E-1,1.095782831E0,3.024638942E-1,-1.408438715E0,1.809951390E0
8.654596667E-1,1.418846320E0,5.455460975E-1,-1.099389394E0,1.876007053E0
8.754956667E-1,1.913274304E0,7.253777996E-1,-6.810328084E-1,2.156524334E0
8.855316667E-1,2.417525610E0,8.129866317E-1,-4.511740834E-1,2.590161268E0
8.955686667E-1,2.780547802E0,8.502238206E-1,-4.001313990E-1,2.935035223E0
9.056046667E-1,2.858372780E0,7.321336725E-1,-2.724673855E-1,2.963199814E0
9.156416667E-1,2.632526707E0,4.902778862E-1,-2.426705593E-1,2.688765194E0
9.256776667E-1,2.440049962E0,2.655529434E-1,-1.280803353E-1,2.457797135E0
9.357146667E-1,2.321312747E0,-2.186379456E-2,3.268885911E-2,2.321645850E0
9.457506667E-1,2.184582918E0,-4.263882478E-1,1.911074728E-1,2.233994523E0
9.557876667E-1,1.979216132E0,-6.729811925E-1,4.091875666E-1,2.130172446E0
9.658236667E-1,1.774391676E0,-9.320806736E-1,4.022206092E-1,2.044265546E0
9.758606667E-1,1.632399207E0,-1.219464452E0,2.880402750E-1,2.057860035E0
9.858966667E-1,1.383146291E0,-1.422274396E0,1.646499914E-1,1.990745524E0
9.959336667E-1,1.185405079E0,-1.658868822E0,9.498743355E-2,2.041091272E0
1.005969667E0,1.169003932E0,-1.826950544E0,6.595659256E-4,2.168944194E0
1.016006667E0,1.162705457E0,-1.911553322E0,-5.373591185E-2,2.238036557E0
1.026042667E0,1.131713898E0,-1.966119539E0,-5.220978856E-2,2.269169066E0
1.036079667E0,1.166240830E0,-1.948633148E0,1.996707201E-2,2.271054271E0
1.046115667E0,1.170289076E0,-1.983549065E0,1.160005724E-1,2.305970414E0
1.056152667E0,1.139604350E0,-2.021107632E0,9.742981553E-2,2.322297721E0
1.066188667E0,9.517492452E-1,-2.005604909E0,-2.513718009E-3,2.219973873E0
1.076225667E0,7.273980126E-1,-1.984199861E0,-1.786102188E-1,2.120862694E0
1.086261667E0,5.136073265E-1,-1.958198901E0,-3.534232557E-1,2.055053142E0
1.096298667E0,3.341940292E-1,-1.955927550E0,-5.054555404E-1,2.047638526E0
1.106334667E0,1.747039863E-1,-1.877254871E0,-6.328809875E-1,1.988754806E0
1.116370667E0,6.371129829E-2,-1.742009504E0,-7.205313349E-1,1.886218875E0
1.126407667E0,-1.105688563E-1,-1.542807877E0,-7.724399918E-1,1.728914445E0
1.136443667E0,-2.547704767E-1,-1.352975389E0,-8.025104678E-1,1.593572543E0
1.146480667E0,-3.472346357E-1,-1.118302432E0,-7.171153915E-1,1.373108410E0
1.156516667E0,-4.590691036E-1,-8.727233217E-1,-4.464273137E-1,1.082445280E0
1.166553667E0,-5.934839468E-1,-7.126767701E-1,-1.312968886E-1,9.366804400E-1
1.176589667E0,-7.226710504E-1,-6.696722531E-1,2.019183898E-1,1.005726310E0
1.186626667E0,-9.531739924E-1,-6.636577340E-1,5.621173990E-1,1.290332600E0
1.196662667E0,-1.103680592E0,-6.213014540E-1,8.124402094E-1,1.504721051E0
1.206699667E0,-1.131166234E0,-6.572635844E-1,8.141709852E-1,1.540911049E0
1.216735667E0,-1.283038743E0,-5.955685157E-1,7.224679327E-1,1.588348258E0
1.226772667E0,-1.525676558E0,-5.171346228E-1,6.343731970E-1,1.731342407E0
1.236808667E0,-1.650492393E0,-4.840442061E-1,5.722558862E-1,1.812705363E0
1.246845667E0,-1.518669547E0,-4.307999720E-1,7.006876391E-1,1.727110007E0
1.256881667E0,-1.311224808E0,-2.407862940E-1,1.088754478E0,1.721242240E0
1.266918667E0,-9.692996630E-1,1.471941523E-2,1.225578740E0,1.562626553E0
1.276954667E0,-7.717237810E-1,9.622368112E-2,1.079170892E0,1.330197882E0
1.286991667E0,-7.402608638E-1,-3.449652582E-2,8.482877344E-1,1.126396128E0
1.297027667E0,-9.602008107E-1,-7.277539618E-2,5.736720818E-1,1.120884255E0
1.307064667E0,-1.062002078E0,-1.610502262E-1,3.846573275E-1,1.140941212E0
1.317100667E0,-1.033583660E0,-1.436573178E-1,1.204684299E-1,1.050450022E0
1.327136667E0,-9.875996207E-1,-4.792882271E-2,-8.832862437E-2,9.926994151E-1
1.337173667E0,-8.272169273E-1,2.489946154E-1,-1.133541226E-1,8.712837198E-1
1.347209667E0,-5.995735295E-1,6.644907430E-1,-5.728341758E-2,8.968376413E-1
1.357246667E0,-3.741744028E-1,8.678639931E-1,-9.004536688E-2,9.493695605E-1
1.367282667E0,-1.962937703E-1,1.046730320E0,-1.508248347E-1,1.075603894E0
1.377319667E0,-1.130694729E-1,1.172703903E0,-2.926373559E-1,1.213942244E0
1.387355667E0,-1.336501736E-2,1.299234215E0,-4.292996496E-1,1.368388234E0
1.397392667E0,8.722368333E-2,1.444697591E0,-4.966660058E-1,1.530175226E0
1.407428667E0,1.345502063E-1,1.508212094E0,-5.025050354E-1,1.595405525E0
1.417465667E0,1.718378274E-1,1.538051898E0,-5.042077446E-1,1.627684653E0
1.427501667E0,1.566160267E-1,1.502393676E0,-5.063220978E-1,1.593134459E0
1.437538667E0,1.373691855E-1,1.414548763E0,-3.843936181E-1,1.472269319E0
1.447574667E0,1.447548036E-1,1.314236708E0,-2.086742628E-1,1.338550345E0
1.457611667E0,1.978539171E-1,1.180556422E0,-7.018646836E-2,1.199077052E0
1.467647667E0,2.547494450E-1,1.033411971E0,1.177927440E-1,1.070846726E0
1.477684667E0,4.035116379E-1,8.424101863E-1,3.378521204E-1,9.932877826E-1
1.487720667E0,5.715342667E-1,6.932219142E-1,6.105335140E-1,1.086259275E0
1.497757667E0,6.390035339E-1,4.836221834E-1,7.203793073E-1,1.077572401E0
1.507793667E0,6.151624623E-1,2.740500075E-1,7.331543040E-1,9.955116751E-1
1.517829667E0,5.024294601E-1,4.986140057E-2,6.884991181E-1,8.537871850E-1
1.527866667E0,3.314856720E-1,-1.581089671E-1,5.967165434E-1,7.006795483E-1
1.537902667E0,9.052461930E-2,-3.286441079E-1,4.284313381E-1,5.474989204E-1
1.547939667E0,-9.101468906E-2,-4.417493950E-1,1.344602323E-1,4.706439797E-1
1.557975667E0,-3.049321136E-1,-4.716566971E-1,-2.693011183E-1,6.228697505E-1
1.568012667E0,-5.196536033E-1,-3.793227300E-1,-6.496519715E-1,9.143157468E-1
1.578048667E0,-7.337481619E-1,-1.736214657E-1,-9.438692451E-1,1.208064539E0
1.588085667E0,-9.590235469E-1,7.891245101E-2,-1.221052995E0,1.554645861E0
1.598121667E0,-1.146313007E0,2.108218903E-1,-1.496633438E0,1.896942547E0
1.608158667E0,-1.359501028E0,1.504062289E-1,-1.438726707E0,1.985144734E0
1.618194667E0,-1.654641869E0,-1.269256381E-1,-9.294254529E-1,1.902046662E0
1.628231667E0,-1.863164982E0,-5.362011505E-1,-2.173024142E-1,1.950926898E0
1.638267667E0,-1.944978200E0,-8.573653174E-1,4.398725849E-1,2.170599773E0
1.648304667E0,-1.993953455E0,-1.029246853E0,9.956007314E-1,2.454876836E0
1.658340667E0,-2.012259479E0,-1.010733325E0,1.318841829E0,2.609619481E0
1.668377667E0,-1.972088377E0,-7.918250466E-1,1.376524612E0,2.531983309E0
1.678413667E0,-1.846867476E0,-5.052015885E-1,1.176826994E0,2.247458541E0
1.688450667E0,-1.693553482E0,-1.850812775E-1,8.966944939E-1,1.925211544E0
1.698486667E0,-1.561212426E0,8.274570286E-2,6.001640618E-1,1.674642646E0
1.708523667E0,-1.428638214E0,3.183630948E-1,3.678454131E-1,1.509195963E0
1.718559667E0,-1.288162658E0,5.631999013E-1,2.577090132E-1,1.429325400E0
1.728595667E0,-1.172765153E0,7.184005364E-1,1.429351866E-1,1.382717579E0
1.738632708E0,-1.090920141E0,7.520144981E-1,-2.619552612E-2,1.325261772E0
1.748668708E0,-1.040003829E0,7.173105423E-1,-1.056065619E-1,1.267791436E0
1.758705708E0,-1.006848435E0,6.643735794E-1,-7.706922591E-2,1.208749639E0
1.768741708E0,-1.004673856E0,5.928033675E-1,-1.108339727E-2,1.166579715E0
1.778778708E0,-9.684600028E-1,4.932796274E-1,1.100586319E-1,1.092406733E0
1.788814708E0,-9.288882400E-1,3.522361978E-1,1.937463212E-1,1.012146896E0
1.798851708E0,-9.085298431E-1,2.274566523E-1,1.472562790E-1,9.480756384E-1
1.808887708E0,-9.517542884E-1,1.354511891E-1,-1.637980521E-2,9.614840343E-1
1.818924708E0,-9.594754636E-1,9.408811351E-2,-2.477938896E-1,9.954132560E-1
1.828960708E0,-1.047663316E0,6.295959304E-2,-4.651857662E-1,1.148024447E0
1.838997708E0,-1.175027587E0,2.224280834E-2,-7.328999501E-1,1.385036790E0
1.849033708E0,-1.326789365E0,-1.336044009E-2,-9.925607640E-1,1.657023051E0
1.859070708E0,-1.486787311E0,-7.316395280E-2,-1.069831134E0,1.833147056E0
1.869106708E0,-1.586201380E0,-8.860411959E-2,-9.561676937E-1,1.854222793E0
1.879143708E0,-1.505196978E0,-9.416030835E-2,-6.662346750E-1,1.648742778E0
1.889179708E0,-1.342457856E0,-3.947636185E-2,-2.019447023E-1,1.358135907E0
1.899215708E0,-1.259248469E0,-2.170720339E-2,2.600718731E-1,1.286007500E0
1.909252708E0,-1.163553084E0,7.062614243E-3,5.651164359E-1,1.293546383E0
1.919288708E0,-1.047041977E0,5.711894637E-2,8.004715437E-1,1.319209675E0
1.929325708E0,-8.830274313E-1,7.430140983E-2,1.016930205E0,1.348853285E0
1.939361708E0,-7.623100562E-1,8.017326602E-2,1.191085430E0,1.416414090E0
1.949398708E0,-6.994872788E-1,3.997152966E-2,1.333033606E0,1.505941158E0
1.959434708E0,-6.588483261E-1,-4.355014441E-2,1.433720321E0,1.578458644E0
1.969471708E0,-5.930456614E-1,-1.433846822E-1,1.450831028E0,1.573903744E0
1.979507708E0,-5.675230037E-1,-2.615300773E-1,1.354339106E0,1.491547772E0
1.989544708E0,-5.899858135E-1,-3.680546338E-1,1.121125833E0,1.319268967E0
1.999580708E0,-6.424683747E-1,-4.345892236E-1,7.923100001E-1,1.108777950E0
2.009617708E0,-7.007779786E-1,-4.016542333E-1,3.427082330E-1,8.774194159E-1
2.019653708E0,-6.845254965E-1,-3.252027291E-1,-1.801088601E-1,7.789551797E-1
2.029690708E0,-6.646068102E-1,-2.317699971E-1,-5.458241326E-1,8.906983369E-1
2.039726708E0,-6.615275203E-1,-1.275500842E-1,-7.418093526E-1,1.002082232E0
2.049763708E0,-6.299864696E-1,-1.436211381E-2,-8.496618301E-1,1.057834792E0
2.059799708E0,-5.294761947E-1,7.318364147E-2,-9.056553519E-1,1.051623746E0
2.069836708E0,-3.844421500E-1,1.775785141E-1,-9.116697979E-1,1.005222222E0
2.079872708E0,-2.326618803E-1,2.436836990E-1,-9.514074755E-1,1.009301481E0
2.089909708E0,-2.682225993E-1,3.809333455E-1,-1.002594586E0,1.105553925E0
2.099945708E0,4.828075200E-2,2.500864733E-1,-9.545468456E-1,9.879443079E-1
2.109981708E0,2.185170271E-1,1.229815632E-1,-6.836915374E-1,7.282226818E-1
2.120018708E0,1.601159142E-1,7.330983169E-3,-3.356389493E-1,3.719467080E-1
2.130054708E0,7.300248742E-3,-2.659150688E-1,-1.564609659E-1,3.086165117E-1
2.140091708E0,-2.155245683E-1,-4.937974349E-1,-1.086646557E-1,5.496314708E-1
2.150127708E0,-4.144190705E-1,-6.577198134E-1,-1.759012038E-1,7.970443855E-1
2.160164708E0,-5.826075044E-1,-7.348310662E-1,-3.236106420E-1,9.920342976E-1
2.170200708E0,-7.255739737E-1,-6.995590534E-1,-5.553252733E-1,1.150750459E0
2.180237708E0,-7.922399797E-1,-5.987374143E-1,-7.770598769E-1,1.260933277E0
2.190273708E0,-7.952192822E-1,-4.205718762E-1,-9.023481667E-1,1.274161145E0
2.200310708E0,-7.924259211E-1,-2.829237420E-1,-9.220994765E-1,1.248299695E0
2.210346708E0,-7.283101782E-1,-2.230495145E-1,-9.265644103E-1,1.199461716E0
2.220383708E0,-5.896073525E-1,-1.677958848E-1,-8.407360554E-1,1.040494788E0
2.230419708E0,-4.739083502E-1,-9.156708648E-2,-6.577018332E-1,8.158096329E-1
2.240456708E0,-3.927220997E-1,-4.643462157E-2,-3.950630325E-1,5.589826664E-1
2.250492708E0,-3.275507882E-1,1.067326991E-2,-9.494650304E-2,3.412012251E-1
2.260529708E0,-2.220696491E-1,4.851361737E-2,2.282197505E-1,3.221067442E-1
2.270565708E0,-1.537975591E-1,4.150570200E-2,4.730701518E-1,4.991710939E-1
2.280601708E0,-1.208302264E-1,1.772928776E-2,6.041577101E-1,6.163771653E-1
2.290638708E0,-9.434321657E-2,1.607722093E-2,7.339863628E-1,7.401993653E-1
2.300674708E0,-1.897816166E-2,2.558426825E-2,7.937291193E-1,7.943680760E-1
2.310711708E0,2.463475809E-2,9.359045379E-3,8.524842811E-1,8.528915010E-1
2.320747708E0,7.001163661E-3,2.826912923E-3,8.889147735E-1,8.889468388E-1
2.330784708E0,6.083121568E-2,5.189065849E-3,9.281314641E-1,9.301372898E-1
2.340820708E0,1.410230009E-1,2.111483933E-2,1.012536607E0,1.022528094E0
2.350857708E0,1.788069776E-1,1.949360286E-2,1.048653104E0,1.063966761E0
2.360893708E0,1.910745822E-1,5.265006563E-4,9.503292489E-1,9.693479533E-1
2.370930708E0,2.102538881E-1,-1.193638498E-2,7.972795486E-1,8.246234616E-1
2.380966708E0,2.345158862E-1,2.253879394E-2,6.349070477E-1,6.772094634E-1
2.391003708E0,3.573515613E-1,8.480500085E-2,5.840900660E-1,6.899661091E-1
2.401039708E0,4.921094169E-1,1.845574949E-1,5.298834532E-1,7.463307719E-1
2.411076708E0,5.960487914E-1,2.420250998E-1,4.693396282E-1,7.963227972E-1
2.421112708E0,6.947215788E-1,2.288288842E-1,4.772479874E-1,8.733649705E-1
2.431149708E0,7.183915463E-1,1.801821513E-1,4.213544530E-1,8.521100847E-1
2.441185708E0,6.990548041E-1,9.658280980E-2,3.217828023E-1,7.755965641E-1
2.451222708E0,6.870697662E-1,-4.536220567E-2,1.967319095E-1,7.161187315E-1
2.461258708E0,6.297661757E-1,-1.335618441E-1,6.841417730E-2,6.473984105E-1
2.471294708E0,6.065135533E-1,-2.275774156E-1,-7.448651075E-2,6.520723968E-1
2.481331708E0,5.839345300E-1,-3.204312915E-1,-1.829821819E-1,6.907519286E-1
2.491367708E0,5.187050387E-1,-3.583442358E-1,-2.866574085E-1,6.925590072E-1
2.501404708E0,5.021123949E-1,-4.353571823E-1,-4.028690654E-1,7.771462006E-1
2.511440708E0,4.886930349E-1,-4.475501253E-1,-5.226475239E-1,8.439682644E-1
2.521477708E0,4.263514835E-1,-4.692977475E-1,-5.662192208E-1,8.500706849E-1
2.531513708E0,3.964324504E-1,-5.349754279E-1,-5.453651261E-1,8.606860734E-1
2.541550708E0,3.078181896E-1,-6.147785926E-1,-5.312633961E-1,8.688760279E-1
2.551586708E0,2.655761495E-1,-6.393951512E-1,-5.252296543E-1,8.690356957E-1
2.561623708E0,2.620692819E-1,-6.401870835E-1,-5.892590046E-1,9.087056646E-1
2.571659708E0,2.153503212E-1,-6.415924618E-1,-6.337808740E-1,9.271973059E-1
2.581696708E0,1.615448275E-1,-6.229628672E-1,-6.637776750E-1,9.245432749E-1
2.591732708E0,1.433140862E-1,-6.424957104E-1,-6.732373005E-1,9.415880883E-1
2.601769708E0,1.547284359E-1,-6.706883530E-1,-6.604938787E-1,9.539475455E-1
2.611805708E0,2.180795091E-1,-6.337177972E-1,-6.368506622E-1,9.245191641E-1
2.621842708E0,2.727138457E-1,-5.542260698E-1,-5.921808583E-1,8.556971117E-1
2.631878708E0,3.018742025E-1,-4.677955247E-1,-5.414895916E-1,7.766412717E-1
2.641915708E0,2.599753940E-1,-3.965801657E-1,-5.047152829E-1,6.925319849E-1
2.651951708E0,2.369230387E-1,-2.799027415E-1,-5.269762176E-1,6.420140223E-1
2.661987708E0,1.978797179E-1,-2.089112212E-1,-4.687525678E-1,5.500265911E-1
2.672024708E0,1.884867507E-1,-1.613165668E-1,-3.624618816E-1,4.392367307E-1
2.682060708E0,2.081930369E-1,-1.043460849E-1,-2.341289467E-1,3.302253923E-1
2.692097708E0,2.665605283E-1,-1.669891700E-2,-5.728283286E-2,2.731569000E-1
2.702133708E0,3.109125361E-1,5.419056941E-2,1.196726239E-1,3.375274208E-1
2.712170708E0,3.121612090E-1,1.118620594E-1,1.906782871E-1,3.825126794E-1
2.722206708E0,3.006807858E-1,1.627637893E-1,2.462882316E-1,4.213773595E-1
2.732243708E0,2.733143547E-1,1.913370125E-1,2.965894890E-1,4.464033085E-1
2.742280417E0,2.461397123E-1,2.097957587E-1,3.290286720E-1,4.613663245E-1
2.752317417E0,2.052682596E-1,2.480059060E-1,3.236129808E-1,4.564727256E-1
2.762353417E0,2.058792937E-1,2.602240286E-1,3.031997663E-1,4.494807303E-1
2.772390417E0,2.004223797E-1,2.428793049E-1,2.782420957E-1,4.202120308E-1
2.782426417E0,1.523845795E-1,1.526792791E-1,2.883998787E-1,3.601479035E-1
2.792463417E0,1.349806345E-1,5.569359619E-2,3.518316436E-1,3.809291978E-1
2.802499417E0,7.719844937E-2,-1.277967453E-2,4.082830024E-1,4.157137605E-1
2.812535417E0,3.769992292E-3,-7.195015306E-2,4.377740192E-1,4.436633062E-1
2.822572417E0,6.777800024E-3,-5.619324077E-2,3.880533904E-1,3.921594735E-1
2.832608417E0,2.457877100E-3,-1.414978679E-2,3.435823917E-1,3.438824182E-1
2.842645417E0,-4.675813705E-2,-2.511240251E-2,3.398992306E-1,3.440180854E-1
2.852681417E0,-8.024572581E-2,-7.616122641E-2,3.677313924E-1,3.840133928E-1
2.862718417E0,-1.194922373E-1,-1.218384691E-1,3.948805994E-1,4.301786781E-1
2.872754417E0,-1.292047548E-1,-1.608665140E-1,4.410899752E-1,4.869622883E-1
2.882791417E0,-1.413663787E-1,-2.233955783E-1,4.629532993E-1,5.331189312E-1
2.892827417E0,-1.005112982E-1,-2.037283954E-1,4.059944022E-1,4.652303029E-1
2.902864417E0,-3.663777620E-2,-1.508853899E-1,3.201303792E-1,3.557979584E-1
2.912900417E0,1.056036383E-2,-1.045728838E-1,2.107558715E-1,2.355101839E-1
2.922937417E0,2.170398742E-2,-8.352341909E-2,8.524948061E-2,1.213041572E-1
2.932973417E0,1.368482351E-2,-8.845576476E-2,-7.817201078E-2,1.188383776E-1
2.943010417E0,4.160352409E-2,-1.038889058E-1,-1.951654404E-1,2.249740143E-1
2.953046417E0,3.129985303E-2,-1.029617932E-1,-3.301928526E-1,3.472868146E-1
2.963083417E0,1.914670765E-2,-1.203898214E-1,-4.434908420E-1,4.599395965E-1
2.973119417E0,1.207216144E-2,-1.150042434E-1,-5.090352058E-1,5.220043619E-1
2.983156417E0,1.018614203E-2,-1.044815576E-1,-5.721383572E-1,5.816893098E-1
2.993192417E0,-9.850248724E-2,-9.473176405E-2,-5.811892623E-1,5.970408744E-1
3.003228417E0,-1.357033503E-1,-8.060474485E-2,-6.019825459E-1,6.223307077E-1
3.013265417E0,-1.679045516E-1,-6.965356775E-2,-6.490853763E-1,6.740588874E-1
3.023301417E0,-2.135011393E-1,-4.992557377E-2,-6.244183123E-1,6.617956846E-1
3.033338417E0,-2.251949859E-1,1.405634098E-2,-5.805706269E-1,6.228744778E-1
3.043374417E0,-2.257156804E-1,6.898866624E-2,-5.257260829E-1,5.762767727E-1
3.053411417E0,-2.061055809E-1,5.795423940E-2,-4.192605650E-1,4.707628126E-1
3.063447417E0,-2.198786974E-1,3.405067563E-2,-2.963579392E-1,3.705861819E-1
3.073484417E0,-2.569406891E-1,-2.780493569E-2,-1.493279475E-1,2.984802641E-1
3.083520417E0,-2.390827078E-1,-3.966648772E-2,-2.988511920E-3,2.423693516E-1
3.093557417E0,-1.910270736E-1,-1.677927967E-2,1.389602494E-1,2.368181538E-1
3.103593417E0,-1.462131357E-1,-1.377658825E-2,2.492323047E-1,2.892832818E-1
3.113630417E0,-1.394970238E-1,-7.733600512E-3,2.679176670E-1,3.021574168E-1
3.123666417E0,-1.326247913E-1,-5.238959044E-3,2.953036863E-1,3.237607899E-1
3.133703417E0,-8.199258149E-2,-1.259844739E-2,3.157473063E-1,3.264626560E-1
3.143739417E0,-3.501341969E-2,2.217446901E-3,3.431233853E-1,3.449123282E-1
3.153776417E0,-5.794883072E-3,-1.610297609E-2,3.961950535E-1,3.965645053E-1
3.163812417E0,4.337464571E-2,-4.192132026E-2,4.845488209E-1,4.882891733E-1
3.173848417E0,7.694058716E-2,-7.300204888E-2,4.994539583E-1,5.105912353E-1
3.183885417E0,1.335050896E-1,-9.314621843E-2,4.366080844E-1,4.659682890E-1
3.193921417E0,1.816367376E-1,-7.747509576E-2,3.106397635E-1,3.680915070E-1
3.203958417E0,2.072267845E-1,-5.914699830E-2,1.957560092E-1,2.911386659E-1
3.213994417E0,2.308185455E-1,-4.940100543E-2,1.368839031E-1,2.728641846E-1
3.224031417E0,2.466074896E-1,-6.718845472E-2,9.690765917E-2,2.733507578E-1
3.234067417E0,2.552552292E-1,-9.923448555E-2,7.109921873E-2,2.829448958E-1
3.244104417E0,2.539121237E-1,-1.066200306E-1,4.810328901E-2,2.795588022E-1
3.254140417E0,2.316795480E-1,-1.228674694E-1,4.961947203E-3,2.622907717E-1
3.264177417E0,2.038298446E-1,-1.190083802E-1,-6.664364040E-2,2.452569569E-1
3.274213417E0,1.730240813E-1,-1.272354126E-1,-1.716023308E-1,2.749064256E-1
3.284250417E0,1.583452311E-1,-1.514888591E-1,-2.542632490E-1,3.356663320E-1
3.294286417E0,1.424229705E-1,-1.356087716E-1,-3.303776246E-1,3.844781090E-1
3.304323417E0,1.769721213E-1,-1.125547352E-1,-4.636023402E-1,5.088367420E-1
3.314359417E0,2.145659173E-1,-9.438721687E-2,-5.534986031E-1,6.010891641E-1
3.324396417E0,2.523786914E-1,-7.607205637E-2,-5.621916586E-1,6.209198198E-1
3.334432417E0,2.421370009E-1,-1.243408947E-1,-4.969074959E-1,5.665757184E-1
3.344468417E0,1.996911854E-1,-1.376921345E-1,-4.050190866E-1,4.720976106E-1
3.354505417E0,1.471226701E-1,-1.301217444E-1,-3.090423042E-1,3.661746772E-1
3.364541417E0,8.873208225E-2,-1.560053216E-1,-2.193536174E-1,2.834202750E-1
3.374578417E0,5.411948919E-2,-1.685666757E-1,-1.314886773E-1,2.205287181E-1
3.384614417E0,4.724053234E-2,-2.004711308E-1,-2.504596353E-2,2.074792580E-1
3.394651417E0,3.816799253E-2,-2.151315623E-1,1.085325086E-1,2.439624770E-1
3.404687417E0,5.613122374E-2,-1.902195000E-1,2.021943784E-1,2.832255975E-1
3.414724417E0,7.997763097E-2,-1.246028499E-1,2.417016757E-1,2.834466293E-1
3.424760417E0,8.625373989E-2,-1.085966087E-1,3.006234831E-1,3.310700978E-1
3.434797417E0,7.104776323E-2,-9.233550198E-2,3.117355317E-1,3.327952393E-1
3.444833417E0,2.587539107E-2,-6.153273538E-2,2.989611197E-1,3.063226476E-1
3.454870417E0,-4.522821307E-4,-4.607233174E-2,3.000177115E-1,3.035349923E-1
3.464906417E0,-2.026177168E-2,-2.918162607E-2,3.130137330E-1,3.150233384E-1
3.474943417E0,-1.156666964E-2,-2.001713879E-2,3.358512032E-1,3.366459630E-1
3.484979417E0,1.327376425E-2,-1.563984007E-3,3.808034277E-1,3.810379107E-1
3.495016417E0,1.352285564E-2,1.606858715E-2,3.774377704E-1,3.780216100E-1
3.505052417E0,3.167729080E-2,3.601877533E-2,3.164396167E-1,3.200544234E-1
3.515088417E0,3.319259673E-2,4.774456233E-2,2.541544908E-1,2.607216848E-1
3.525125417E0,1.149153292E-2,2.472217396E-2,2.093724203E-1,2.111398863E-1
3.535161417E0,4.268467426E-5,1.637922049E-2,1.832757121E-1,1.840061612E-1
3.545198417E0,-1.511154413E-2,3.136687674E-2,1.458687347E-1,1.499664212E-1
3.555234417E0,-3.766864032E-2,3.958038747E-2,4.398100197E-2,7.014172845E-2
3.565271417E0,-4.302439749E-2,7.225806378E-2,-2.160604656E-2,8.682826618E-2
3.575307417E0,-5.098304272E-2,1.037189345E-1,-2.762166202E-2,1.188269508E-1
3.585344417E0,-6.776279747E-2,1.111694567E-1,-2.071610034E-2,1.318317171E-1
3.595380417E0,-7.507561773E-2,1.054584812E-1,-1.862104297E-2,1.307844902E-1
3.605417417E0,-8.667356998E-2,6.822670095E-2,5.533571005E-2,1.234067715E-1
3.615453417E0,-7.433652967E-2,1.944001861E-2,1.622719288E-1,1.795439023E-1
3.625490417E0,-8.866893232E-2,-3.647025347E-2,1.995660549E-1,2.214020534E-1
3.635526417E0,-8.079390228E-2,-7.876908459E-2,1.781494582E-1,2.108778148E-1
3.645563417E0,-1.249792644E-1,-9.322720237E-2,1.061743265E-1,1.886375239E-1
3.655599417E0,-1.567492336E-1,-7.596666031E-2,-1.393683851E-2,1.747440734E-1
3.665635417E0,-1.707591623E-1,-3.989928000E-2,-1.503775227E-1,2.310065873E-1
3.675672417E0,-1.914948508E-1,-2.332103491E-2,-2.784666288E-1,3.387592241E-1
3.685708417E0,-1.929095846E-1,-1.644522093E-2,-3.937403923E-1,4.387665093E-1
3.695745417E0,-1.581914493E-1,1.708476014E-2,-4.439954567E-1,4.716443461E-1
3.705781417E0,-1.819545338E-1,1.558794603E-3,-4.465740788E-1,4.822222413E-1
3.715818417E0,-1.678370163E-1,-5.381674960E-2,-4.022013134E-1,4.391257258E-1
3.725854417E0,-1.825866178E-1,-7.461061791E-2,-2.488493121E-1,3.175383401E-1
3.735890792E0,-1.913311288E-1,-9.451432072E-2,-1.140563732E-1,2.419698616E-1
3.745926792E0,-1.657109687E-1,-1.048868427E-1,-4.497152030E-2,2.012058959E-1
3.755963792E0,-1.807038143E-1,-9.305156663E-2,-1.560680330E-2,2.038529737E-1
3.765999792E0,-1.996996638E-1,-1.020653419E-1,-7.111383677E-3,2.243832916E-1
3.776036792E0,-1.986959893E-1,-1.093269990E-1,7.052326798E-3,2.268969462E-1
3.786072792E0,-1.993897614E-1,-9.777465507E-2,-2.777544379E-2,2.238026707E-1
3.796109792E0,-1.766879466E-1,-5.219692469E-2,-1.072548920E-1,2.131824601E-1
3.806145792E0,-1.555423683E-1,-6.912285984E-3,-1.333574474E-1,2.050010166E-1
3.816182792E0,-1.270380691E-1,-9.963363111E-3,-1.367774838E-1,1.869385452E-1
3.826218792E0,-9.641737014E-2,-1.296912432E-3,-1.367172575E-1,1.673009257E-1
3.836254792E0,-3.895239651E-2,-3.664596230E-3,-8.917530119E-2,9.738045390E-2
3.846291792E0,-1.474404663E-2,-2.387184262E-2,-5.087720811E-2,5.810113671E-2
3.856327792E0,4.513465762E-3,-3.433119580E-2,-2.198903918E-2,4.101853511E-2
3.866364792E0,-1.849269658E-2,-1.845527440E-2,-2.693929195E-2,3.752735577E-2
3.876400792E0,-5.232234746E-2,-3.457794830E-2,-7.745280325E-2,9.966041985E-2
3.886437792E0,-8.662825406E-2,-6.104142308E-2,-1.306747448E-1,1.682450554E-1
3.896473792E0,-1.361690810E-1,-8.271149665E-2,-1.905069637E-1,2.483467607E-1
3.906510792E0,-1.092514238E-1,-8.343976736E-2,-2.445568711E-1,2.805461309E-1
3.916546792E0,-7.667629302E-2,-7.622181818E-2,-2.578306353E-1,2.795812154E-1
3.926583792E0,-3.917137474E-2,-7.399622172E-2,-2.536317497E-1,2.670934329E-1
3.936619792E0,-1.037120640E-2,-5.580918834E-2,-2.636661565E-1,2.697073776E-1
3.946656792E0,1.687243313E-2,-3.661818802E-2,-2.728071088E-1,2.757703561E-1
3.956692792E0,5.684458405E-2,-2.773334384E-2,-2.570091015E-1,2.646773949E-1
3.966729792E0,7.784076601E-2,-3.114577889E-2,-1.682583082E-1,1.879896345E-1
3.976765792E0,8.027291536E-2,-2.197763711E-2,-7.094485223E-2,1.093614627E-1
3.986801792E0,1.123416772E-1,-5.500695035E-2,-3.651001453E-3,1.251389102E-1
3.996838792E0,1.236627638E-1,-5.250521913E-2,2.663114369E-2,1.369616553E-1
4.006874792E0,1.508239576E-1,-5.119588137E-2,2.523892164E-2,1.612634107E-1
4.016911792E0,1.403945714E-1,-9.054121077E-3,5.921475291E-3,1.408107832E-1
4.026947792E0,1.353858465E-1,-3.609193861E-3,3.188311279E-2,1.391362160E-1
4.036984792E0,1.337047720E-1,-2.543948114E-2,6.786220014E-2,1.520835674E-1
4.047020792E0,1.387418559E-1,-5.476750687E-2,1.027788484E-1,1.811415857E-1
4.057057792E0,1.326361933E-1,-7.673096448E-2,1.161526000E-1,1.922795548E-1
4.067093792E0,1.382588759E-1,-7.743116856E-2,1.323727763E-1,2.064791867E-1
4.077130792E0,1.470054334E-1,-7.820402429E-2,1.110111433E-1,2.001248131E-1
4.087166792E0,1.234174731E-1,-7.050996557E-2,6.933452904E-2,1.581480472E-1
4.097203792E0,1.153921697E-1,-7.998727888E-2,1.145294130E-2,1.408704634E-1
4.107239792E0,1.082360548E-1,-9.615950793E-2,-8.653352916E-2,1.686705255E-1
4.117276792E0,1.177067900E-1,-8.909797177E-2,-1.302525759E-1,1.968732346E-1
4.127312792E0,1.161832979E-1,-9.250046656E-2,-1.090061331E-1,1.842206071E-1
4.137349792E0,1.390853798E-1,-1.166015200E-1,-4.295130730E-2,1.865086383E-1
4.147385792E0,1.607674402E-1,-1.031692962E-1,-6.783354878E-3,1.911441535E-1
4.157421792E0,1.482725251E-1,-9.657802239E-2,-3.393139243E-2,1.801760125E-1
4.167458792E0,1.070809373E-1,-1.072051907E-1,-8.990327954E-2,1.761870589E-1
4.177494792E0,8.660164922E-2,-1.047050674E-1,-1.757731497E-1,2.221692980E-1
4.187531792E0,7.406521887E-2,-9.189630300E-2,-2.515694368E-1,2.778808534E-1
4.197567792E0,8.678525180E-2,-8.480070680E-3,-2.996890980E-1,3.121172007E-1
4.207604792E0,1.114306810E-1,3.969148457E-2,-3.261500877E-1,3.469381650E-1
4.217640792E0,1.164823830E-1,5.305047199E-2,-2.698846704E-1,2.986975618E-1
4.227677792E0,1.181964943E-1,4.551501900E-2,-2.013354224E-1,2.378612632E-1
4.237713792E0,1.088734013E-1,5.734685987E-2,-1.427182549E-1,1.884425115E-1
4.247750792E0,7.609624922E-2,3.285448149E-2,-7.390939057E-2,1.110524836E-1
4.257786792E0,9.022838473E-3,-1.800138429E-2,1.455079615E-2,2.484325098E-2
4.267823792E0,-6.569142133E-2,-2.585419491E-2,6.399719059E-2,9.528610935E-2
4.277859792E0,-1.038047424E-1,1.354624450E-2,1.526123285E-4,1.046849969E-1
4.287896792E0,-1.277040669E-1,6.749309465E-2,-4.945224166E-2,1.526734120E-1
4.297932792E0,-1.490174603E-1,1.089555547E-1,-3.827353477E-2,1.885268677E-1
4.307969792E0,-1.684290469E-1,1.284254672E-1,2.620195806E-2,2.134197438E-1
4.318005792E0,-1.631817555E-1,1.469206488E-1,7.313112617E-2,2.314349239E-1
4.328041792E0,-1.604218698E-1,1.346045123E-1,1.444548780E-1,2.544027571E-1
4.338078792E0,-1.116952676E-1,1.083728796E-1,1.989491737E-1,2.525891675E-1
4.348114792E0,-8.446653843E-2,7.242741376E-2,2.500164163E-1,2.736576964E-1
4.358151792E0,-3.606738031E-2,1.143730000E-2,3.493033075E-1,3.513466499E-1
4.368187792E0,8.991848230E-3,-5.363826334E-2,4.167860234E-1,4.203195284E-1
4.378224792E0,5.207676440E-2,-8.420706823E-2,4.020937246E-1,4.141040728E-1
4.388260792E0,6.775373429E-2,-9.061663985E-2,3.500827414E-1,3.679128562E-1
4.398297792E0,3.605890185E-2,-7.718193099E-2,2.661646718E-1,2.794654315E-1
4.408333792E0,3.787826300E-3,-3.602191821E-2,9.284559846E-2,9.966058084E-2
4.418370792E0,-5.229311138E-2,2.507797703E-2,-1.165209746E-1,1.301561061E-1
4.428406792E0,-1.165341309E-1,7.386071250E-2,-3.095071578E-1,3.388661819E-1
4.438443792E0,-1.686047557E-1,1.060655683E-1,-4.272051769E-1,4.713615721E-1
4.448479792E0,-2.086383024E-1,8.767432094E-2,-4.161919463E-1,4.737430357E-1
4.458516792E0,-2.224903563E-1,4.244523078E-2,-3.208425701E-1,3.927384766E-1
4.468552792E0,-2.069996202E-1,-4.332202077E-3,-1.645459110E-1,2.644673279E-1
4.478588792E0,-2.026677105E-1,-5.595419928E-2,-9.737368226E-3,2.104753896E-1
4.488625792E0,-1.997014180E-1,-7.114658117E-2,9.233396709E-2,2.312316022E-1
4.498661792E0,-1.916857624E-1,-6.982247919E-2,1.140598816E-1,2.337269062E-1
4.508698792E0,-2.185993266E-1,-4.984049678E-2,7.121148527E-2,2.352462887E-1
4.518734792E0,-2.632755625E-1,1.479930282E-3,2.264392734E-2,2.642516972E-1
4.528771792E0,-2.878245127E-1,3.818772689E-2,-2.897119939E-2,2.917885930E-1
4.538807792E0,-3.086788997E-1,5.991334900E-2,-2.847769439E-2,3.157265456E-1
4.548844792E0,-3.193994772E-1,3.801961944E-2,2.055413246E-2,3.223103937E-1
4.558880792E0,-3.238924778E-1,-1.585399434E-2,8.390403628E-2,3.349590626E-1
4.568917792E0,-3.276133534E-1,-6.269676983E-2,1.988597113E-1,3.883382277E-1
4.578953792E0,-3.049548081E-1,-1.331611271E-1,3.144164801E-1,4.578067755E-1
4.588990792E0,-2.974013749E-1,-1.856571369E-1,3.876458395E-1,5.226714523E-1
4.599026792E0,-3.075357690E-1,-1.842527819E-1,3.845304430E-1,5.257290162E-1
4.609063792E0,-3.064414626E-1,-1.382829957E-1,2.977647793E-1,4.491017933E-1
4.619099792E0,-2.711426988E-1,-5.533249408E-2,2.076433986E-1,3.459708500E-1
4.629135792E0,-2.302516580E-1,2.402898654E-2,1.257940739E-1,2.634717579E-1
4.639172792E0,-1.724136320E-1,5.647138551E-2,6.036197662E-2,1.912042000E-1
4.649208792E0,-1.491288498E-1,1.761868402E-2,2.398995638E-2,1.520702136E-1
4.659245792E0,-5.309213340E-2,-5.883936167E-2,-5.191684306E-2,9.474282930E-2
4.669281792E0,-2.611600399E-2,-1.099222456E-1,-9.260937095E-2,1.460871019E-1
4.679318792E0,-9.930618703E-3,-1.713348207E-1,-1.796937078E-1,2.484835339E-1
4.689354792E0,6.273653090E-2,-1.993844989E-1,-2.947517091E-1,3.613428022E-1
4.699391792E0,3.927720934E-2,-2.177849557E-1,-3.925890756E-1,4.506652509E-1
4.709427792E0,2.760412037E-2,-1.976620553E-1,-4.272490311E-1,4.715654887E-1
4.719464792E0,3.763560355E-3,-1.394052225E-1,-4.591034925E-1,4.798166288E-1
4.729500792E0,-1.804977000E-2,-7.664515659E-2,-4.693121463E-1,4.758720047E-1
4.739537667E0,-2.015184402E-2,-6.577094346E-3,-4.168789941E-1,4.174175975E-1
4.749573667E0,-1.039898068E-2,2.762940958E-2,-3.423778653E-1,3.436482587E-1
4.759610667E0,-7.758962810E-3,1.078317198E-1,-2.916719806E-1,3.110633787E-1
4.769646667E0,1.502091229E-2,1.765072677E-1,-2.188326305E-1,2.815460238E-1
4.779682667E0,1.065274984E-2,2.329994108E-1,-6.190096378E-2,2.413170856E-1
4.789719667E0,3.908717483E-2,2.842413390E-1,8.173004150E-2,2.983299276E-1
4.799755667E0,9.748594880E-2,2.974906911E-1,2.304171342E-1,3.887110459E-1
4.809792667E0,1.194401971E-1,2.871947676E-1,3.865898323E-1,4.961839313E-1
4.819828667E0,1.193214986E-1,2.567937778E-1,4.316122234E-1,5.162071054E-1
4.829865667E0,1.286130166E-1,2.278354423E-1,4.108148468E-1,4.870514707E-1
4.839901667E0,1.607466826E-1,2.075118363E-1,3.725337106E-1,4.557214321E-1
4.849938667E0,2.086619836E-1,1.661671977E-1,3.429853910E-1,4.345001029E-1
4.859974667E0,2.516548061E-1,8.950026020E-2,2.859095496E-1,3.912604102E-1
4.870011667E0,2.748512954E-1,5.112074465E-3,2.207551950E-1,3.525652053E-1
4.880047667E0,2.657860646E-1,-1.138202919E-1,1.290679300E-1,3.166319970E-1
4.890084667E0,2.630010357E-1,-1.942639460E-1,-2.257609963E-2,3.277464047E-1
4.900120667E0,2.566752255E-1,-2.325772418E-1,-1.763274658E-1,3.886717381E-1
4.910157667E0,2.755213863E-1,-2.368448322E-1,-2.691561073E-1,4.521642610E-1
4.920193667E0,3.048539436E-1,-2.028052662E-1,-3.481315255E-1,5.052340665E-1
4.930230667E0,3.280039474E-1,-1.455697958E-1,-4.586684597E-1,5.823692221E-1
4.940266667E0,3.217024031E-1,-9.410465017E-2,-4.962806743E-1,5.988677893E-1
4.950302667E0,2.988813052E-1,-2.267214015E-2,-4.051062101E-1,5.039395817E-1
4.960339667E0,2.712751383E-1,1.776998073E-2,-3.204969996E-1,4.202669385E-1
4.970375667E0,1.808306989E-1,5.661420375E-2,-2.913515532E-1,3.475494746E-1
4.980412667E0,8.631835163E-2,1.107236065E-1,-2.533592695E-1,2.896575466E-1
4.990448667E0,1.150059611E-2,1.685686491E-1,-1.810245341E-1,2.476237774E-1
5.000485667E0,-6.212754339E-2,2.549416722E-1,-5.547019601E-2,2.682014738E-1
5.010521667E0,-7.678943664E-2,3.334484361E-1,5.193789303E-2,3.460953942E-1
5.020558667E0,-5.582658380E-2,3.828695413E-1,2.005887330E-1,4.358228229E-1
5.030594667E0,-1.317260742E-2,3.594501270E-1,3.479438299E-1,5.004426243E-1
5.040631667E0,-1.628332615E-2,2.946868050E-1,4.817848420E-1,5.649974281E-1
5.050667667E0,-5.078423738E-2,2.126828215E-1,5.699292791E-1,6.104362411E-1
5.060704667E0,-8.485450119E-2,1.443205382E-1,5.696661544E-1,5.937577213E-1
5.070740667E0,-1.752185413E-1,8.999508083E-2,4.766036242E-1,5.157050188E-1
5.080777667E0,-2.743256307E-1,6.548150629E-2,2.847401065E-1,4.007733868E-1
5.090813667E0,-3.384216392E-1,3.437651172E-2,1.104357773E-1,3.576408972E-1
5.100849667E0,-3.907510033E-1,2.537691593E-4,3.190065444E-2,3.920510971E-1
5.110886667E0,-3.490296578E-1,-4.360999614E-2,7.705870092E-2,3.600855137E-1
5.120922667E0,-2.805304036E-1,-1.019821653E-1,1.874629033E-1,3.524769630E-1
5.130959667E0,-2.276046234E-1,-1.950566822E-1,2.737210286E-1,4.059238542E-1
5.140995667E0,-1.826892364E-1,-3.064613432E-1,3.247110879E-1,4.824222244E-1
5.151032667E0,-1.358352050E-1,-4.029091188E-1,3.225265682E-1,5.336762578E-1
5.161068667E0,-1.267199805E-1,-4.386059318E-1,2.439195246E-1,5.176194078E-1
5.171105667E0,-9.123644471E-2,-3.981291662E-1,4.906398654E-2,4.113857030E-1
5.181141667E0,-4.580270201E-2,-3.089027019E-1,-1.849006534E-1,3.629146158E-1
5.191178667E0,-3.182113230E-2,-2.397441740E-1,-4.207785022E-1,4.853291681E-1
5.201214667E0,-2.695858777E-2,-1.727005841E-1,-5.796157765E-1,6.053979729E-1
5.211251667E0,-2.422004431E-2,-1.304101583E-1,-6.916683090E-1,7.042715879E-1
5.221287667E0,-2.174228668E-2,-8.210689455E-2,-7.366690654E-1,7.415494461E-1
5.231324667E0,-1.563457757E-2,-6.803966314E-2,-6.674128890E-1,6.710542453E-1
5.241360667E0,-3.732862473E-3,-8.559125036E-2,-5.294291246E-1,5.363161329E-1
5.251396667E0,1.039342582E-2,-1.264403374E-1,-3.700825578E-1,3.912240813E-1
5.261433667E0,6.171882302E-2,-1.217698739E-1,-2.457409322E-1,2.811151385E-1
5.271469667E0,1.039883450E-1,-7.631639689E-2,-1.587612605E-1,2.045553865E-1
5.281506667E0,1.586580572E-1,-7.107085973E-2,-7.080744267E-2,1.877155831E-1
5.291542667E0,1.551558673E-1,-6.949415803E-2,9.739707112E-3,1.702869433E-1
5.301579667E0,1.393227768E-1,-6.302070558E-2,3.254209399E-2,1.563375622E-1
5.311615667E0,1.512709773E-1,-4.150733739E-2,-2.003256083E-3,1.568750479E-1
5.321652667E0,1.496641624E-1,-2.292985618E-2,-1.566235185E-2,1.522184255E-1
5.331688667E0,1.385980144E-1,-8.716590554E-3,-4.848745108E-2,1.470932407E-1
5.341725667E0,1.429205686E-1,-6.539818347E-3,-8.169729710E-2,1.647528649E-1
5.351761667E0,1.365833563E-1,9.610629827E-3,-6.939943314E-2,1.535045886E-1
5.361798667E0,1.423302922E-1,-1.588381514E-2,-2.155166745E-2,1.448263858E-1
5.371834667E0,1.286492693E-1,-4.364317909E-2,1.046996588E-1,1.715149560E-1
5.381871667E0,1.248634896E-1,-8.359764218E-2,1.943596941E-1,2.456728465E-1
5.391907667E0,1.341146618E-1,-1.230865207E-1,2.217632550E-1,2.869076077E-1
5.401943667E0,1.457792723E-1,-1.467219897E-1,1.574935842E-1,2.599676279E-1
5.411980667E0,1.361038846E-1,-1.318080814E-1,7.140678227E-2,2.024760882E-1
5.422016667E0,1.532993764E-1,-1.112463476E-1,-1.983784854E-2,1.904468138E-1
5.432053667E0,2.066897178E-1,-7.679586858E-2,-2.660950899E-2,2.220952742E-1
5.442089667E0,2.247964981E-1,-3.075971648E-2,-3.132353425E-3,2.269128409E-1
5.452126667E0,2.333734864E-1,-2.383763641E-2,-1.068344772E-2,2.348309032E-1
5.462162667E0,1.977136570E-1,-3.292684078E-2,-5.192035139E-2,2.070521430E-1
5.472199667E0,1.314895543E-1,-4.520248532E-2,-1.398156971E-1,1.971831553E-1
5.482235667E0,1.035097504E-1,-4.275834918E-2,-2.145138770E-1,2.419891491E-1
5.492272667E0,1.109430233E-1,-5.813842669E-2,-1.931037122E-1,2.301683617E-1
5.502308667E0,1.600166577E-1,-6.513900563E-2,-7.376847267E-2,1.878568827E-1
5.512345667E0,2.046531326E-1,-7.133427680E-2,2.492551088E-2,2.181576604E-1
5.522381667E0,1.949809608E-1,-6.965685681E-2,1.756737471E-2,2.077938051E-1
5.532418667E0,1.399759108E-1,-4.894031793E-2,-9.971373796E-2,1.786931444E-1
5.542454667E0,6.701844692E-2,-3.687400371E-3,-2.621663457E-1,2.706219909E-1
5.552491667E0,-3.398401737E-2,5.173455611E-2,-4.051395392E-1,4.098407300E-1
5.562527667E0,-1.020780596E-1,9.271096632E-2,-5.066653293E-1,5.250952385E-1
5.572563667E0,-1.351347086E-1,1.278806528E-1,-5.221627897E-1,5.543183470E-1
5.582600667E0,-1.456874710E-1,1.346068512E-1,-4.109867549E-1,4.563485031E-1
5.592636667E0,-1.260551521E-1,1.172714648E-1,-2.331039298E-1,2.897929259E-1
5.602673667E0,-8.886159807E-2,7.098856017E-2,-2.388646066E-2,1.162167040E-1
5.612709667E0,-6.614867359E-2,1.450460315E-2,1.413108301E-1,1.566996530E-1
5.622746667E0,-8.044248462E-2,-7.379756257E-2,2.609103638E-1,2.828273175E-1
5.632782667E0,-5.085878938E-2,-1.132993050E-1,2.753488934E-1,3.020601961E-1
5.642819667E0,-8.347777426E-3,-9.123776034E-2,2.000665766E-1,2.200469254E-1
5.652855667E0,6.836096764E-2,-4.858436868E-2,1.445993042E-1,1.671604665E-1
5.662892667E0,1.630630571E-1,3.478537828E-2,1.373961192E-1,2.160492460E-1
5.672928667E0,2.197640920E-1,8.011401728E-2,1.623467731E-1,2.847296729E-1
5.682965667E0,2.574806795E-1,9.123776034E-2,1.849111784E-1,3.298678115E-1
5.693001667E0,2.704851794E-1,9.028305620E-2,2.112476224E-1,3.548785996E-1
5.703037667E0,2.718852952E-1,7.078946248E-2,2.252786011E-1,3.601155507E-1
5.713074667E0,2.739633957E-1,5.750414997E-2,1.765403044E-1,3.309518825E-1
5.723110667E0,2.400697178E-1,5.914429396E-2,4.527674496E-2,2.513593056E-1
5.733147667E0,1.904560930E-1,6.657888249E-2,-1.174214458E-1,2.334396429E-1
5.743184292E0,1.353890625E-1,8.541042522E-2,-2.585328859E-1,3.040795818E-1
5.753221292E0,8.570322454E-2,1.189942007E-1,-3.884089011E-1,4.151700097E-1
5.763257292E0,2.018049538E-2,1.638464378E-1,-4.793991780E-1,5.070270993E-1
5.773294292E0,-3.436174750E-2,1.982406373E-1,-4.777239507E-1,5.183630514E-1
5.783330292E0,-4.683210433E-2,2.236771949E-1,-4.049103284E-1,4.649484999E-1
5.793367292E0,-4.001571268E-2,2.299024330E-1,-2.572839206E-1,3.473491065E-1
5.803403292E0,-4.877104104E-2,2.493479334E-1,-1.111725265E-1,2.773307357E-1
5.813440292E0,-6.414980292E-2,2.151744662E-1,4.252679944E-3,2.245736704E-1
5.823476292E0,-8.664491862E-2,1.697290291E-1,7.794046104E-2,2.058883210E-1
5.833513292E0,-1.413961995E-1,1.317310444E-1,1.300157636E-1,2.329164057E-1
5.843549292E0,-1.798770180E-1,1.200931849E-1,1.349782956E-1,2.549455921E-1
5.853586292E0,-2.406860143E-1,1.336362134E-1,1.457412654E-1,3.114946411E-1
5.863622292E0,-2.402661842E-1,1.309988268E-1,1.870389801E-1,3.314696245E-1
5.873658292E0,-2.171913171E-1,1.471451819E-1,2.717452544E-1,3.777158404E-1
5.883695292E0,-1.293702310E-1,1.297076154E-1,3.548745346E-1,3.993703262E-1
5.893731292E0,-8.363857269E-3,1.207869570E-1,4.231606579E-1,4.401413244E-1
5.903768292E0,5.716267258E-2,5.586707577E-2,4.359760004E-1,4.432423426E-1
5.913804292E0,9.533885121E-2,-4.354991600E-2,3.043159997E-1,3.218607143E-1
5.923841292E0,1.014965540E-1,-1.194482370E-1,9.543240666E-2,1.835123321E-1
5.933877292E0,7.660144866E-2,-1.765762648E-1,-1.666672808E-1,2.546074267E-1
5.943914292E0,7.683621436E-2,-1.621441671E-1,-4.133759272E-1,4.506375395E-1
5.953950292E0,9.920678437E-2,-1.019049820E-1,-6.107253027E-1,6.270661901E-1
5.963987292E0,4.150938392E-3,-5.143751755E-2,-7.813476402E-1,7.830499239E-1
5.974023292E0,-1.577412137E-1,-4.475751221E-3,-9.159979069E-1,9.294915214E-1
5.984060292E0,-3.065388188E-1,8.112924010E-2,-1.010996450E0,1.059557371E0
5.994096292E0,-4.402684414E-1,2.025880422E-1,-1.090269492E0,1.193132759E0
6.004133292E0,-5.468848175E-1,3.441112724E-1,-1.080854305E0,1.259262324E0
6.014169292E0,-5.448917940E-1,5.094187832E-1,-9.703103542E-1,1.223894092E0
6.024205292E0,-4.706687003E-1,6.046667102E-1,-7.001374161E-1,1.037951472E0
6.034242292E0,-3.658769479E-1,6.507573876E-1,-2.660377872E-1,7.925447765E-1
6.044278292E0,-2.477169988E-1,5.630588007E-1,2.013956487E-1,6.472705245E-1
6.054315292E0,-1.614267138E-1,4.226066342E-1,6.201755726E-1,7.676409917E-1
6.064351292E0,-7.641784608E-2,2.827386045E-1,9.209838277E-1,9.664326239E-1
6.074388292E0,-9.516343474E-3,1.693110994E-1,1.087058786E0,1.100206168E0
6.084424292E0,1.134827614E-2,8.634978041E-2,1.059192710E0,1.062767267E0
6.094461292E0,3.620332807E-2,6.566847101E-2,8.985439682E-1,9.016675063E-1
6.104497292E0,5.770207822E-2,9.844971612E-2,6.591607136E-1,6.689654122E-1
6.114534292E0,9.757424176E-2,1.258803204E-1,4.279647303E-1,4.566403377E-1
6.124570292E0,1.493837884E-1,1.844874014E-1,1.910109937E-1,3.046905270E-1
6.134607292E0,1.553704602E-1,1.859796108E-1,2.266673148E-2,2.433971574E-1
6.144643292E0,1.697104642E-1,1.627801980E-1,-3.666847408E-2,2.379991838E-1
6.154680292E0,1.895255086E-1,1.306434622E-1,-6.933686793E-2,2.404063932E-1
6.164716292E0,2.176076388E-1,1.230265868E-1,-7.072850525E-2,2.597905829E-1
6.174752292E0,2.672376359E-1,1.221752322E-1,-7.881169617E-2,3.042269298E-1
6.184789292E0,2.911547944E-1,1.231461623E-1,-4.269402981E-2,3.189966642E-1
6.194825292E0,2.478751659E-1,8.882797658E-2,6.995608807E-3,2.634035798E-1
6.204862292E0,2.279367453E-1,7.423449576E-2,6.886909068E-2,2.494170641E-1
6.214898292E0,1.777588642E-1,9.898298219E-2,7.178568184E-2,2.157522391E-1
6.224935292E0,1.652440685E-1,1.118027101E-1,3.298355877E-2,2.022210754E-1
6.234971292E0,1.415233764E-1,1.366448982E-1,-1.167747438E-2,1.970711995E-1
6.245008292E0,1.053491382E-1,1.462163517E-1,-5.585669696E-2,1.886733501E-1
6.255044292E0,1.212525415E-1,1.210781483E-1,-6.945673585E-2,1.848954704E-1
6.265081292E0,6.896878570E-2,1.213161300E-1,-6.971927583E-2,1.559970327E-1
6.275117292E0,9.436528981E-3,7.935197890E-2,-3.209887505E-2,8.611691131E-2
6.285154292E0,-1.673590064E-2,2.045750722E-2,1.816671431E-2,3.207225407E-2
6.295190292E0,-5.476779923E-2,8.664111793E-4,5.262201726E-2,7.595616632E-2
6.305227292E0,-7.758290380E-2,-3.164059952E-2,2.045005202E-2,8.624638617E-2
6.315263292E0,-8.793876126E-2,-3.499295443E-2,2.345318198E-2,9.750786808E-2
6.325299292E0,-1.233109076E-1,-7.148031101E-2,2.745677054E-2,1.451512627E-1
6.335336292E0,-1.449306951E-1,-9.206923440E-2,3.055988789E-2,1.744005650E-1
6.345372292E0,-1.496457437E-1,-1.277970377E-1,5.365346611E-2,2.039721203E-1
6.355409292E0,-1.535129459E-1,-1.478575189E-1,9.532832623E-2,2.334856746E-1
6.365445292E0,-1.437486805E-1,-1.732018366E-1,1.418750864E-1,2.660659683E-1
6.375482292E0,-1.449230938E-1,-2.152392241E-1,1.912290949E-1,3.223339781E-1
6.385518292E0,-1.135296853E-1,-2.185936256E-1,2.010641116E-1,3.179605943E-1
6.395555292E0,-1.246901196E-1,-2.843987752E-1,1.780301750E-1,3.579455720E-1
6.405591292E0,-1.001692361E-1,-3.235504156E-1,1.540560061E-1,3.720913871E-1
6.415628292E0,-7.887119159E-2,-3.177545093E-1,1.311185485E-1,3.526764336E-1
6.425664292E0,-3.380713910E-2,-2.992087492E-1,7.603076041E-2,3.105631575E-1
6.435701292E0,1.649382591E-2,-2.845155734E-1,1.862689018E-2,2.856013285E-1
6.445737292E0,4.247709811E-2,-2.229739210E-1,-6.579228580E-2,2.363266768E-1
6.455774292E0,9.723364145E-2,-1.251771927E-1,-1.585946149E-1,2.242230195E-1
6.465810292E0,1.648394412E-1,-6.561657697E-2,-2.114113444E-1,2.759933570E-1
6.475846292E0,2.054030380E-1,-1.010691226E-2,-2.500228482E-1,3.237344318E-1
6.485883292E0,2.168904778E-1,1.711991653E-2,-2.544065058E-1,3.347495200E-1
6.495919292E0,2.438553514E-1,2.040839061E-2,-1.884662855E-1,3.088712929E-1
6.505956292E0,2.514606786E-1,-2.138326764E-3,-1.040178734E-1,2.721337232E-1
6.515992292E0,2.052897482E-1,-4.025822595E-2,-6.294761539E-2,2.184651179E-1
6.526029292E0,1.319962156E-1,-6.259751335E-2,-2.933548093E-2,1.490034229E-1
6.536065292E0,6.573805287E-2,-7.064869076E-2,-2.049156725E-2,9.865411005E-2
6.546102292E0,2.093551710E-2,-6.799317777E-2,-1.075712264E-2,7.195195471E-2
6.556138292E0,3.931667805E-3,-4.404415190E-2,-4.016803265E-2,5.973956959E-2
6.566175292E0,-1.682346269E-2,-7.967562228E-3,-5.209518313E-2,5.532105432E-2
6.576211292E0,-2.451255128E-2,-2.509800375E-2,-3.259179533E-2,4.788528046E-2
6.586248292E0,-5.990150839E-2,-3.769860730E-2,-3.313734055E-2,7.815023377E-2
6.596284292E0,-8.441976070E-2,-8.062886462E-2,-4.888038397E-2,1.265582939E-1
6.606321292E0,-1.130187848E-1,-1.070141329E-1,-3.248596072E-2,1.589987673E-1
6.616357292E0,-1.067273270E-1,-1.258624864E-1,-6.978651881E-3,1.651689722E-1
6.626393292E0,-1.421386497E-1,-1.497312592E-1,-2.423553944E-2,2.078706499E-1
6.636430292E0,-1.634798174E-1,-1.676298787E-1,1.579917669E-3,2.341536313E-1
6.646466292E0,-1.389899240E-1,-2.053081669E-1,2.673288524E-2,2.493677797E-1
6.656503292E0,-9.320564076E-2,-2.570786834E-1,3.926346838E-2,2.762577797E-1
6.666539292E0,-9.211820483E-2,-2.923559587E-1,3.147380769E-2,3.081369351E-1
6.676576292E0,-9.374592349E-2,-2.967653440E-1,4.131701052E-2,3.139507333E-1
6.686612292E0,-1.170809917E-1,-2.932890281E-1,4.453414857E-2,3.189195871E-1
6.696649292E0,-1.357280548E-1,-2.883529548E-1,1.861811936E-2,3.192431139E-1
6.706685292E0,-1.309086335E-1,-2.736222106E-1,-2.918754637E-2,3.047262662E-1
6.716722292E0,-1.034460157E-1,-2.323683500E-1,-9.220298946E-2,2.705504011E-1
6.726758292E0,-6.292393416E-2,-2.189982529E-1,-7.091269255E-2,2.386383587E-1
6.736795292E0,-5.576182589E-2,-2.341842028E-1,-7.371701717E-2,2.517654081E-1
6.746830917E0,-6.535140574E-2,-2.548209272E-1,-1.188265318E-1,2.886594115E-1
6.756867917E0,-9.276505306E-2,-2.704717308E-1,-2.328805661E-1,3.687731963E-1
6.766903917E0,-1.226134810E-1,-2.396348311E-1,-3.960997438E-1,4.789090990E-1
6.776939917E0,-1.522721668E-1,-1.604877971E-1,-5.502563220E-1,5.930642172E-1
6.786976917E0,-2.136134058E-1,-5.666492835E-2,-6.148300481E-1,6.533433931E-1
6.797012917E0,-2.449322623E-1,5.798851870E-2,-6.818420631E-1,7.268170887E-1
6.807049917E0,-2.492536470E-1,1.261633256E-1,-6.610908794E-1,7.176947235E-1
6.817085917E0,-2.172796100E-1,1.633167531E-1,-5.237889004E-1,5.901166011E-1
6.827122917E0,-1.894190893E-1,1.483484658E-1,-3.726997715E-1,4.436124191E-1
6.837158917E0,-1.782421365E-1,1.244219517E-1,-2.369595838E-1,3.215601431E-1
6.847195917E0,-1.525173113E-1,9.175056115E-2,-1.348420554E-1,2.232981765E-1
6.857231917E0,-1.356045324E-1,1.001345182E-1,-6.777332246E-2,1.816830597E-1
6.867268917E0,-1.250856838E-1,1.247587513E-1,-6.478714943E-4,1.766680335E-1
6.877304917E0,-1.135701773E-1,1.577402636E-1,3.126564682E-2,1.968697960E-1
6.887341917E0,-1.235458195E-1,2.093587524E-1,3.533297002E-2,2.456482760E-1
6.897377917E0,-1.692973584E-1,2.362633996E-1,3.878925920E-2,2.932347118E-1
6.907414917E0,-2.090885380E-1,2.673969725E-1,3.418516159E-2,3.411565372E-1
6.917450917E0,-2.592421532E-1,2.949061487E-1,4.403538108E-2,3.951142180E-1
6.927486917E0,-3.182326654E-1,2.940497509E-1,7.213183701E-2,4.392496866E-1
6.937523917E0,-2.867869243E-1,2.914140453E-1,2.093186259E-1,4.593290465E-1
6.947559917E0,-2.252862024E-1,2.683584740E-1,4.198476255E-1,5.468474853E-1
6.957596917E0,-1.973587310E-1,2.093935434E-1,5.284426993E-1,6.017040894E-1
6.967632917E0,-1.374677476E-1,1.752935319E-1,5.923855108E-1,6.328868756E-1
6.977669917E0,-6.919127226E-2,1.356914366E-1,6.308286148E-1,6.489563463E-1
6.987705917E0,-9.097098112E-3,1.157936541E-1,6.105984181E-1,6.215475491E-1
6.997742917E0,4.658827543E-2,9.969254181E-2,5.634224975E-1,5.740679237E-1
7.007778917E0,1.109786913E-1,1.065321761E-1,4.946615803E-1,5.180303597E-1
7.017815917E0,1.256326908E-1,1.342346028E-1,4.200189489E-1,4.584958223E-1
7.027851917E0,1.555789134E-1,1.386135826E-1,2.954750097E-1,3.615577477E-1
7.037888917E0,1.532882667E-1,1.145105557E-1,1.685559314E-1,2.549922785E-1
7.047924917E0,1.357495433E-1,1.068651751E-1,6.068064988E-2,1.831126577E-1
7.057961917E0,1.366389048E-1,9.840856634E-2,1.061503530E-2,1.687220057E-1
7.067997917E0,1.592457023E-1,7.275653891E-2,-2.927817822E-2,1.775103360E-1
7.078034917E0,1.570825249E-1,1.109841000E-1,-4.957094014E-2,1.986194053E-1
7.088070917E0,1.505403677E-1,8.486597635E-2,-7.711483419E-2,1.892388276E-1
7.098106917E0,9.563647449E-2,4.164321207E-2,-6.560517490E-2,1.232255304E-1
7.108143917E0,4.575563192E-2,2.315278128E-3,-3.390215635E-2,5.699381169E-2
7.118179917E0,-1.892743707E-3,-2.652567454E-2,-1.596991539E-2,3.101986599E-2
7.128216917E0,-3.709473610E-2,-1.693382889E-2,7.736451030E-3,4.150453809E-2
7.138252917E0,-7.309545815E-2,2.369525671E-2,-2.162183404E-2,7.982427513E-2
7.148289917E0,-9.269795626E-2,5.255565137E-2,-1.018497258E-1,1.474054756E-1
7.158325917E0,-8.994304061E-2,8.802961238E-2,-1.094364882E-1,1.667792198E-1
7.168362917E0,-1.199983138E-1,8.634298302E-2,-8.902561247E-2,1.725695967E-1
7.178398917E0,-1.507871202E-1,6.700339034E-2,-9.311924815E-2,1.894661033E-1
7.188435917E0,-1.575152189E-1,5.607333630E-2,-5.986788690E-2,1.775934320E-1
7.198471917E0,-1.764566892E-1,5.201946169E-2,-3.307886839E-2,1.869149515E-1
7.208508917E0,-1.949002692E-1,2.656894393E-2,-2.271117032E-2,1.980096487E-1
7.218544917E0,-2.125071126E-1,1.054998502E-2,-6.449478865E-4,2.127698077E-1
7.228581917E0,-2.168132946E-1,-1.709769711E-2,3.594868183E-2,2.204373918E-1
7.238617917E0,-2.282688671E-1,-2.825645037E-2,9.707196593E-2,2.496559017E-1
7.248653917E0,-2.092946523E-1,-5.966155328E-2,1.678530961E-1,2.748425264E-1
7.258690917E0,-1.965085459E-1,-5.044422179E-2,1.789932114E-1,2.705527635E-1
7.268726917E0,-2.170913297E-1,-3.270069972E-2,1.794826233E-1,2.835700853E-1
7.278763917E0,-2.097714928E-1,-3.539202690E-2,1.932937467E-1,2.874354663E-1
7.288799917E0,-1.751594844E-1,-1.207150362E-2,1.633407998E-1,2.398057194E-1
7.298836917E0,-1.428977644E-1,-1.977455243E-3,1.265343314E-1,1.908785437E-1
7.308872917E0,-1.026350069E-1,2.203486674E-2,6.835453570E-2,1.252670050E-1
7.318909917E0,-6.684273809E-2,1.256749369E-2,3.473304570E-2,7.636935247E-2
7.328945917E0,-6.139722615E-2,2.395940468E-2,-4.345884562E-2,7.894519437E-2
7.338982917E0,-6.505992204E-2,1.060677610E-2,-1.270313448E-1,1.431162454E-1
7.349018917E0,-8.751176834E-2,1.219151773E-2,-2.008062494E-1,2.193857162E-1
7.359055917E0,-1.013991979E-1,5.272507444E-3,-2.455520672E-1,2.657167935E-1
7.369091917E0,-8.503693432E-2,5.422561616E-4,-2.517612255E-1,2.657353738E-1
7.379128917E0,-5.500592709E-2,1.249484204E-2,-2.320590323E-1,2.388161795E-1
7.389164917E0,-5.009982079E-2,9.436309710E-3,-2.167726564E-1,2.226868217E-1
7.399200917E0,-6.243569165E-2,-1.721069455E-2,-1.717859334E-1,1.835887538E-1
7.409237917E0,-6.400888503E-2,-3.636690393E-2,-1.117250884E-1,1.337990450E-1
7.419273917E0,-1.070695353E-1,-6.165611163E-2,-4.584743321E-2,1.317852367E-1
7.429310917E0,-1.160236689E-1,-7.791254058E-2,-5.136603534E-2,1.488970293E-1
7.439346917E0,-1.013187987E-1,-4.866330609E-2,-4.812784731E-2,1.222698082E-1
7.449383917E0,-1.076165423E-1,-1.595953658E-2,-2.756552875E-2,1.122313920E-1
7.459419917E0,-9.689216405E-2,-4.766211659E-3,-3.111303449E-3,9.705920068E-2
7.469456917E0,-8.923728168E-2,9.230414629E-3,-1.858712912E-2,9.161863547E-2
7.479492917E0,-6.471902937E-2,1.273684368E-2,7.610735893E-3,6.639806661E-2
7.489529917E0,-5.920042723E-2,1.013216492E-2,5.707057893E-2,8.285168876E-2
7.499565917E0,-5.333420813E-2,2.170131963E-2,9.565635502E-2,1.116495557E-1
7.509602917E0,-1.063316166E-2,2.819235027E-2,1.264062774E-1,1.299477576E-1
7.519638917E0,6.477837861E-3,3.108003426E-2,1.835452688E-1,1.862707615E-1
7.529674917E0,-6.141915321E-3,1.927319024E-2,1.860116243E-1,1.871082665E-1
7.539711917E0,5.312195420E-3,7.311139181E-3,1.809993911E-1,1.812248651E-1
7.549747917E0,3.866295934E-2,1.377951186E-2,1.772560036E-1,1.819461189E-1
7.559784917E0,8.457061887E-2,4.075545855E-2,1.684600371E-1,1.928522260E-1
7.569820917E0,1.268223068E-1,5.608941615E-2,1.427930993E-1,1.990472037E-1
7.579857917E0,1.707530227E-1,5.961996496E-2,1.523468649E-1,2.364755849E-1
7.589893917E0,2.110543719E-1,3.778222248E-2,1.267524326E-1,2.490735301E-1
7.599930917E0,2.370882225E-1,4.226206675E-2,1.058813810E-1,2.630737052E-1
7.609966917E0,2.447454438E-1,2.093376294E-2,8.197153151E-2,2.589553758E-1
7.620003917E0,2.273917848E-1,5.794371441E-3,5.571110129E-2,2.341886533E-1
7.630039917E0,2.084070450E-1,1.619802989E-2,1.684465885E-2,2.097131734E-1
7.640076917E0,1.864916807E-1,3.805945359E-2,-3.421264350E-2,1.933860749E-1
7.650112917E0,1.238194692E-1,3.309728712E-2,-5.958254278E-2,1.413392047E-1
7.660149917E0,7.139157951E-2,4.217245817E-2,-7.763055861E-2,1.135859916E-1
7.670185917E0,7.576880515E-2,6.919229552E-3,-6.980756879E-2,1.032564004E-1
7.680222917E0,4.160352409E-2,-1.675863169E-2,-4.789337397E-2,6.561615824E-2
7.690258917E0,9.625978768E-3,-1.655178644E-2,-6.592209399E-2,6.864651176E-2
7.700294917E0,-2.523892164E-2,-1.390445955E-2,-9.256785572E-2,9.694918810E-2
7.710331917E0,-1.141274169E-1,-2.744814590E-2,-1.286545318E-1,1.741564141E-1
7.720367917E0,-1.730176494E-1,4.554052748E-2,-2.132035160E-1,2.783249645E-1
7.730404917E0,-2.372800112E-1,8.816797212E-2,-2.778819072E-1,3.758906083E-1
7.740440708E0,-3.282489458E-1,1.187229630E-1,-3.573449832E-1,4.995377357E-1
7.750477708E0,-3.942236647E-1,1.440337323E-1,-4.201715612E-1,5.938873249E-1
7.760513708E0,-4.442930800E-1,1.700433900E-1,-4.263585001E-1,6.388213099E-1
7.770550708E0,-4.091369882E-1,2.138722182E-1,-4.109388077E-1,6.180656151E-1
7.780586708E0,-3.242146593E-1,2.955987514E-1,-3.342812258E-1,5.515774697E-1
7.790623708E0,-2.301393914E-1,4.048675706E-1,-2.683807665E-1,5.375036047E-1
7.800659708E0,-1.498202831E-1,4.759173804E-1,-2.852792197E-1,5.747414231E-1
7.810696708E0,-1.078907767E-1,5.070928339E-1,-3.397688377E-1,6.198600043E-1
7.820732708E0,-1.216182849E-1,5.376669013E-1,-4.188775724E-1,6.923403243E-1
7.830769708E0,-1.938644350E-1,5.363045000E-1,-5.065583253E-1,7.627629205E-1
7.840805708E0,-2.049443239E-1,5.138152681E-1,-5.628757828E-1,7.892005148E-1
7.850842708E0,-2.956790775E-1,3.731435021E-1,-5.593200910E-1,7.345074229E-1
7.860878708E0,-4.136636102E-1,1.310812360E-1,-5.149812394E-1,6.734282069E-1
7.870914708E0,-5.210395396E-1,-1.084830996E-1,-3.700486439E-1,6.482181605E-1
7.880951708E0,-6.087205848E-1,-3.674929356E-1,-9.363146424E-3,7.111114375E-1
7.890987708E0,-5.962370718E-1,-5.753856449E-1,2.305241382E-1,8.600631747E-1
7.901024708E0,-5.740936661E-1,-6.328125020E-1,4.032006025E-1,9.447782417E-1
7.911060708E0,-5.100508672E-1,-6.344625863E-1,5.052953267E-1,9.581325731E-1
7.921097708E0,-4.152563918E-1,-5.821484249E-1,5.416445428E-1,8.970582313E-1
7.931133708E0,-3.438092637E-1,-5.100860236E-1,5.375152391E-1,8.168936244E-1
7.941170708E0,-4.776733723E-1,-3.930664276E-1,4.405268884E-1,7.594320289E-1
7.951206708E0,-6.449654281E-1,-2.688151781E-1,1.192375910E-1,7.088438520E-1
7.961243708E0,-3.992420375E-2,-4.872564472E-1,-3.358289838E-2,4.900414252E-1
7.971279708E0,7.491335750E-2,-2.527605694E-1,8.676390946E-2,2.775389929E-1
7.981316708E0,1.529874274E-1,-4.395185726E-2,1.935159409E-1,2.505700263E-1
7.991352708E0,2.802319032E-1,1.036690322E-2,2.106184620E-1,3.507100352E-1
8.001389708E0,2.733430061E-1,9.791519838E-2,1.809789258E-1,3.421361668E-1
8.011425708E0,2.183569595E-1,1.421253198E-1,4.552642107E-2,2.644844482E-1
8.021461708E0,9.156301171E-2,1.430044579E-1,-1.814350086E-1,2.485009506E-1
8.031498708E0,-4.529253244E-2,1.320689860E-1,-3.585155958E-1,3.847428531E-1
8.041534708E0,-6.142353863E-2,1.426059884E-1,-4.901650715E-1,5.141703184E-1
8.051571708E0,-7.134012401E-2,1.429894652E-1,-5.009210247E-1,5.257920439E-1
8.061607708E0,-1.116780183E-1,1.229107571E-1,-4.256428009E-1,4.568925781E-1
8.071644708E0,-1.186362049E-1,8.794506529E-2,-3.584015751E-1,3.876345865E-1
8.081680708E0,-1.110041267E-1,1.861304416E-2,-2.747670954E-1,2.969264527E-1
8.091717708E0,-1.381021705E-1,-7.285085724E-2,-1.589015937E-1,2.227760611E-1
8.101753708E0,-2.217740723E-1,-2.085339661E-1,-1.237288374E-1,3.286015511E-1
8.111790708E0,-2.979437041E-1,-3.342716510E-1,-1.120642269E-1,4.615911377E-1
8.121826708E0,-3.432257116E-1,-4.104354355E-1,-1.077296859E-1,5.457717665E-1
8.131863708E0,-3.658468348E-1,-4.540682358E-1,-1.234674668E-1,5.960420159E-1
8.141899708E0,-3.783753714E-1,-4.685029647E-1,-9.698952019E-2,6.099753410E-1
8.151936708E0,-3.843769535E-1,-4.692465113E-1,-1.139815289E-1,6.171950419E-1
8.161972708E0,-3.008448002E-1,-4.005132222E-1,-1.637126827E-1,5.269917243E-1
8.172008708E0,-1.739935496E-1,-2.893871628E-1,-2.318912172E-1,4.096244890E-1
8.182045708E0,-9.580721319E-2,-2.013318044E-1,-2.081801730E-1,3.050450819E-1
8.192081708E0,9.163171649E-3,-1.329203863E-1,-1.480591017E-1,1.991815514E-1
8.202118708E0,1.457164147E-1,-1.124707545E-1,-6.323646784E-2,1.946324614E-1
8.212154708E0,2.377156287E-1,-1.066068378E-1,7.974958956E-2,2.724586850E-1
8.222191708E0,3.077828139E-1,-9.519987021E-2,1.967061818E-1,3.774739697E-1
8.232227708E0,3.685622817E-1,-8.799544271E-2,2.565085799E-1,4.575784140E-1
8.242264708E0,4.401789790E-1,-9.432805035E-2,3.551762509E-1,5.734156293E-1
8.252300708E0,5.108495969E-1,-5.243863396E-2,4.224455434E-1,6.649641780E-1
8.262337708E0,5.665820405E-1,2.248988975E-2,4.498315626E-1,7.237882553E-1
8.272373708E0,6.140821892E-1,5.845677104E-2,4.446585310E-1,7.604178709E-1
8.282410708E0,6.376812592E-1,5.526696872E-2,4.151821321E-1,7.629338300E-1
8.292446708E0,6.517172080E-1,7.519292749E-2,3.938181603E-1,7.651679809E-1
8.302483708E0,6.633063895E-1,1.110657782E-1,3.670443445E-1,7.661804776E-1
8.312519708E0,6.901515412E-1,1.277588115E-1,3.042253679E-1,7.649735540E-1
8.322555708E0,6.469251224E-1,1.711707332E-1,2.274344695E-1,7.067800024E-1
8.332592708E0,6.185693425E-1,1.867043732E-1,1.301017177E-1,6.591001528E-1
8.342628708E0,5.936888552E-1,2.013008507E-1,1.232008338E-2,6.270089901E-1
8.352665708E0,5.699126145E-1,2.176774034E-1,-4.462361097E-2,6.116985424E-1
8.362701708E0,5.107823539E-1,2.120709834E-1,-5.947378457E-2,5.562462100E-1
8.372738708E0,4.605383992E-1,1.939214088E-1,-8.994128644E-2,5.077307997E-1
8.382774708E0,3.965514413E-1,1.822150638E-1,-1.158555615E-1,4.515283891E-1
8.392811708E0,3.132429439E-1,1.452900065E-1,-1.357138753E-1,3.710102207E-1
8.402847708E0,2.463975745E-1,1.588947963E-1,-1.251596510E-1,3.187856008E-1
8.412884708E0,2.084810123E-1,1.614387371E-1,-1.369219100E-1,2.971100937E-1
8.422920708E0,1.515417033E-1,1.516206042E-1,-1.412441719E-1,2.567169873E-1
8.432957708E0,9.514180005E-2,1.735312542E-1,-1.018959188E-1,2.225934333E-1
8.442993708E0,4.502092928E-2,1.639766480E-1,-7.339366615E-2,1.852076008E-1
8.453030708E0,-1.776091754E-3,1.545087633E-1,-5.872826457E-2,1.653031200E-1
8.463066708E0,-4.233793437E-2,1.327755763E-1,-3.946402788E-2,1.448422033E-1
8.473103708E0,-6.957163364E-2,1.219714567E-1,-1.123834848E-2,1.408671322E-1
8.483139708E0,-8.160637289E-2,9.894629091E-2,4.437218070E-2,1.357160971E-1
8.493175708E0,-1.222442293E-1,9.048164226E-2,9.900213182E-2,1.814717644E-1
8.503212708E0,-1.288375497E-1,7.234018061E-2,1.417318296E-1,2.047440536E-1
8.513248708E0,-1.675683367E-1,5.100613922E-2,2.096507478E-1,2.731926239E-1
8.523285708E0,-2.010144103E-1,3.960772321E-2,2.474956816E-1,3.212937555E-1
8.533321708E0,-2.348256424E-1,2.254799645E-2,2.274467486E-1,3.276942446E-1
8.543358708E0,-2.505379879E-1,1.094938640E-2,2.038006085E-1,3.231468095E-1
8.553394708E0,-2.571155208E-1,-3.060249947E-3,2.059015131E-1,3.294134018E-1
8.563431708E0,-2.423793679E-1,1.032925263E-2,1.995666397E-1,3.141357909E-1
8.573467708E0,-2.015432909E-1,1.056599177E-2,2.187671417E-1,2.976413959E-1
8.583504708E0,-1.609335011E-1,1.075412594E-3,2.550426829E-1,3.015750626E-1
8.593540708E0,-1.358887070E-1,-9.294880182E-4,2.682421875E-1,3.006999764E-1
8.603577708E0,-7.422309369E-2,1.642084535E-2,2.924391353E-1,3.021578390E-1
8.613613708E0,-2.512987107E-2,1.292830344E-2,3.019040233E-1,3.032238294E-1
8.623650708E0,7.340594530E-3,4.780318066E-3,2.487516636E-1,2.489058575E-1
8.633686708E0,-1.782231331E-3,-5.125084519E-4,1.703738308E-1,1.703839230E-1
8.643722708E0,1.249257624E-3,-9.076705948E-4,7.408012927E-2,7.409622165E-2
8.653759708E0,1.129155815E-2,6.719912589E-4,8.797720671E-3,1.433006443E-2
8.663795708E0,4.069369733E-3,-2.214377113E-3,-5.874405205E-2,5.892645321E-2
8.673832708E0,-7.776796818E-5,7.109994963E-3,-1.378165340E-1,1.379998374E-1
8.683868708E0,-9.838525057E-3,-4.378870167E-3,-2.425372428E-1,2.427762040E-1
8.693905708E0,4.152692556E-3,4.140369549E-2,-3.385660654E-1,3.411136050E-1
8.703941708E0,3.188106626E-2,8.724721838E-2,-3.865220046E-1,3.975270300E-1
8.713978708E0,9.699010491E-2,9.966685060E-2,-4.065557349E-1,4.296837524E-1
8.724014708E0,1.181847998E-1,1.598351017E-1,-3.950191784E-1,4.422160761E-1
8.734051708E0,1.401723772E-1,1.956645734E-1,-3.334900975E-1,4.112767508E-1
8.744088208E0,1.553529185E-1,1.887032073E-1,-2.851932657E-1,3.756043511E-1
8.754125208E0,1.416008520E-1,1.776972126E-1,-2.667622572E-1,3.504129029E-1
8.764161208E0,1.047657323E-1,1.705588586E-1,-2.292336577E-1,3.043258989E-1
8.774198208E0,8.923581988E-2,1.654080098E-1,-1.554564142E-1,2.439047724E-1
8.784234208E0,9.702197224E-2,1.683744119E-1,-9.822737575E-2,2.177425614E-1
8.794271208E0,8.598096728E-2,1.694008541E-1,-4.790448368E-2,1.959189007E-1
8.804307208E0,6.820952475E-2,1.753473628E-1,-5.627477288E-2,1.963825017E-1
8.814343208E0,4.223823935E-2,1.956197691E-1,-4.300276279E-2,2.046958733E-1
8.824380208E0,4.025837213E-2,2.086449170E-1,-1.841755986E-2,2.132900477E-1
8.834416208E0,2.689163715E-2,2.098329251E-1,4.743495226E-2,2.168019633E-1
8.844453208E0,-5.543160439E-4,2.159010559E-1,1.097346961E-1,2.421885149E-1
8.854489208E0,-2.372683167E-2,2.037645385E-1,1.856935358E-1,2.767038831E-1
8.864526208E0,-4.624592096E-2,2.028825957E-1,2.450649941E-1,3.214916549E-1
8.874562208E0,-6.904333770E-2,1.845667408E-1,2.760850579E-1,3.391973223E-1
8.884599208E0,-9.303358644E-2,1.469838718E-1,2.852844822E-1,3.341358146E-1
8.894635208E0,-1.374990302E-1,9.620478731E-2,2.554005325E-1,3.055990452E-1
8.904672208E0,-1.392546567E-1,5.370696813E-2,2.033480340E-1,2.522433761E-1
8.914708208E0,-1.609177136E-1,4.282376491E-2,1.571924525E-1,2.289931277E-1
8.924745208E0,-1.899058700E-1,4.058417168E-2,7.019173086E-2,2.064901778E-1
8.934781208E0,-2.166978121E-1,8.315186508E-2,-2.482376933E-2,2.334274918E-1
8.944818208E0,-2.472237861E-1,1.273438784E-1,-1.466551852E-1,3.143943497E-1
8.954854208E0,-2.725778979E-1,1.490099321E-1,-2.644432515E-1,4.079618898E-1
8.964890208E0,-3.170640993E-1,1.741006633E-1,-3.052533084E-1,4.733077924E-1
8.974927208E0,-3.549312526E-1,1.382202112E-1,-2.893898124E-1,4.783591583E-1
8.984963208E0,-3.654954171E-1,1.024224972E-1,-1.876564461E-1,4.234291081E-1
8.995000208E0,-3.659535465E-1,5.160668481E-2,-3.367996216E-3,3.695897611E-1
9.005036208E0,-3.420314178E-1,7.460316271E-4,1.188306248E-1,3.620866812E-1
9.015073208E0,-3.017981887E-1,-2.736343436E-2,1.632694638E-1,3.442206008E-1
9.025109208E0,-2.683942151E-1,-5.943720292E-2,1.412330621E-1,3.090550333E-1
9.035146208E0,-1.944026712E-1,-4.954484694E-2,1.100369972E-1,2.288126552E-1
9.045182208E0,-1.445536959E-1,-3.984552216E-2,8.072724402E-2,1.702948166E-1
9.055219208E0,-1.035372323E-1,-3.769747440E-2,1.001335680E-1,1.488885136E-1
9.065255208E0,-4.183565855E-2,-6.545453601E-2,1.160181141E-1,1.396234988E-1
9.075292208E0,2.052986652E-2,-6.045450881E-2,1.556411862E-1,1.682272330E-1
9.085328208E0,7.073376775E-2,-4.522591073E-2,1.480380517E-1,1.701878775E-1
9.095365208E0,9.984559268E-2,-1.634987477E-2,9.011436403E-2,1.354882260E-1
9.105401208E0,1.247009370E-1,2.440646086E-2,4.065101266E-2,1.334110334E-1
9.115438208E0,1.275882921E-1,5.518309772E-2,-4.029491723E-2,1.447329503E-1
9.125474208E0,1.182283616E-1,1.046297845E-1,-8.895895422E-2,1.812154321E-1
9.135510208E0,1.234709752E-1,1.506062585E-1,-1.323148888E-1,2.354454430E-1
9.145547208E0,1.467829469E-1,1.848903111E-1,-1.677706504E-1,2.896146608E-1
9.155583208E0,1.642561814E-1,2.141603763E-1,-1.534724540E-1,3.104811653E-1
9.165620208E0,1.828766397E-1,1.744228449E-1,-1.077764636E-1,2.747416246E-1
9.175656208E0,2.245728421E-1,1.490315668E-1,-5.243782997E-3,2.695753449E-1
9.185693208E0,2.301271123E-1,1.109130563E-1,7.384273231E-2,2.659190534E-1
9.195729208E0,2.247625843E-1,5.365591463E-2,1.289691120E-1,2.646322133E-1
9.205766208E0,2.108213603E-1,1.783002432E-2,1.804953611E-1,2.781045327E-1
9.215802208E0,1.857344663E-1,5.893152840E-3,1.761011785E-1,2.560149338E-1
9.225839208E0,1.560268101E-1,-3.554902464E-2,1.219705796E-1,2.012086502E-1
9.235875208E0,1.393514282E-1,-3.733041544E-2,6.801247358E-2,1.594931880E-1
9.245912208E0,1.323590353E-1,-3.468323473E-2,5.029950321E-2,1.457802491E-1
9.255948208E0,1.163771331E-1,-5.035497867E-2,2.450217247E-2,1.291495933E-1
9.265985208E0,8.380112529E-2,-6.005320709E-2,1.631080806E-2,1.043793981E-1
9.276021208E0,9.509239107E-2,-4.463523231E-2,3.221581936E-2,1.098759565E-1
9.286057208E0,1.008241242E-1,-4.912541885E-2,5.795233905E-2,1.262429578E-1
9.296094208E0,1.021412095E-1,-2.688491285E-2,9.438517034E-2,1.416481048E-1
9.306130208E0,8.133827806E-2,-8.128031753E-3,8.250128925E-2,1.161397568E-1
9.316167208E0,6.722953141E-2,1.270227201E-2,7.925666928E-2,1.047032819E-1
9.326203208E0,4.498292238E-2,2.327272229E-2,6.270729482E-2,8.060575496E-2
9.336240208E0,3.756836057E-4,1.585121691E-2,6.808264017E-2,6.990456429E-2
9.346276208E0,-1.928791791E-2,1.863452811E-2,1.036863363E-1,1.070986729E-1
9.356313208E0,-3.688277453E-2,-2.519181501E-2,1.673835647E-1,1.732403658E-1
9.366349208E0,-3.360190183E-2,-5.152617596E-2,2.098337656E-1,2.186646835E-1
9.376386208E0,-2.449018568E-2,-5.941498350E-2,1.910606951E-1,2.015790134E-1
9.386422208E0,-1.651399881E-2,-3.830920279E-2,1.434088111E-1,1.493532533E-1
9.396459208E0,3.738154203E-2,-1.849415839E-2,5.302196681E-2,6.745919169E-2
9.406495208E0,7.567086428E-2,2.350332186E-2,2.967169583E-2,8.461025572E-2
9.416532208E0,1.054679829E-1,1.338117030E-2,4.997147441E-2,1.174721217E-1
9.426568208E0,1.300160560E-1,-8.440675065E-3,6.363758683E-2,1.450005596E-1
9.436605208E0,9.567418903E-2,-2.882710207E-2,6.711200237E-2,1.203684889E-1
9.446641208E0,6.606301188E-2,-6.761672672E-2,3.371504545E-2,1.003645732E-1
9.456677208E0,7.763055861E-3,-9.310645737E-2,1.919114649E-2,9.538017374E-2
9.466714208E0,-3.301630318E-2,-1.011639205E-1,-8.490741849E-3,1.067534908E-1
9.476750208E0,-4.945311874E-2,-8.196985044E-2,-5.846280098E-2,1.121720394E-1
9.486787208E0,-5.606953561E-2,-4.411358759E-2,-1.339246273E-1,1.517419099E-1
9.496823208E0,-1.925429642E-2,-2.149209894E-2,-1.683816844E-1,1.708362663E-1
9.506860208E0,6.615247428E-3,-2.945644520E-2,-1.532660472E-1,1.562111548E-1
9.516896208E0,2.894313276E-2,-5.184828445E-2,-1.270535642E-1,1.402446352E-1
9.526933208E0,7.837783277E-2,-9.254945526E-2,-7.630674899E-2,1.432871462E-1
9.536969208E0,7.807085395E-2,-1.004355767E-1,-3.968563735E-2,1.332565688E-1
9.547006208E0,6.422669381E-2,-1.078988897E-1,-5.476794541E-2,1.369918481E-1
9.557042208E0,2.460449874E-2,-1.074542820E-1,-7.456486344E-2,1.330853972E-1
9.567079208E0,-2.829379946E-2,-9.482177462E-2,-1.605756515E-1,1.886166692E-1
9.577115208E0,-5.957611084E-2,-6.828056842E-2,-2.206446826E-1,2.385280382E-1
9.587152208E0,-9.070493281E-2,-4.580798278E-2,-2.604367393E-1,2.795586724E-1
9.597188208E0,-1.153524086E-1,-1.539138822E-2,-2.819088846E-1,3.049847410E-1
9.607224208E0,-1.311355054E-1,-4.775530659E-3,-2.658419055E-1,2.964645766E-1
9.617261208E0,-1.461052546E-1,-1.135026785E-2,-1.964342862E-1,2.450755043E-1
9.627297208E0,-1.336313894E-1,-4.008516664E-2,-1.087161112E-1,1.768710311E-1
9.637334208E0,-1.242042160E-1,-7.638179434E-2,1.839358628E-2,1.469666282E-1
9.647370208E0,-1.010831559E-1,-1.094821878E-1,1.153363287E-1,1.884320105E-1
9.657407208E0,-1.032419479E-1,-1.219590679E-1,1.695043498E-1,2.329477166E-1
9.667443208E0,-8.538104296E-2,-1.565559100E-1,1.691950321E-1,2.458182954E-1
9.677480208E0,-7.608016938E-2,-1.347821032E-1,1.111169779E-1,1.905292374E-1
9.687516208E0,-1.012959945E-1,-1.099662276E-1,1.845673621E-2,1.506456134E-1
9.697553208E0,-1.394742197E-1,-7.672815051E-2,-7.849828541E-2,1.774887260E-1
9.707589208E0,-1.887618622E-1,-4.798296427E-2,-1.718841666E-1,2.597644553E-1
9.717626208E0,-2.307925254E-1,-2.440043092E-2,-2.763002354E-1,3.608356841E-1
9.727662208E0,-2.607992667E-1,9.931514058E-3,-3.196386284E-1,4.126545107E-1
9.737699208E0,-2.569211009E-1,3.720036970E-2,-3.341362149E-1,4.231303932E-1
9.747736042E0,-2.331621096E-1,7.476361396E-2,-3.231042731E-1,4.054017003E-1
9.757773042E0,-1.964927584E-1,8.255164839E-2,-2.393779922E-1,3.205089732E-1
9.767809042E0,-1.684047809E-1,7.598076671E-2,-1.119268173E-1,2.160112487E-1
9.777845042E0,-1.921976861E-1,2.424339663E-2,7.463970780E-3,1.938643951E-1
9.787882042E0,-1.896556091E-1,-4.964097882E-2,9.836478531E-2,2.193378851E-1
9.797918042E0,-2.215059775E-1,-7.372664681E-2,1.671479219E-1,2.871218284E-1
9.807955042E0,-2.126676187E-1,-6.161653329E-2,1.589045173E-1,2.725339590E-1
9.817991042E0,-2.165908080E-1,-2.353540845E-2,9.240588784E-2,2.366523646E-1
9.828028042E0,-2.100439730E-1,8.828308918E-3,3.300110042E-2,2.128038587E-1
9.838064042E0,-2.207668895E-1,5.424467443E-2,-1.912039518E-4,2.273335451E-1
9.848101042E0,-1.982916543E-1,5.792984555E-2,3.068034053E-2,2.088461885E-1
9.858137042E0,-1.322499847E-1,6.610553211E-2,8.744218647E-2,1.717735015E-1
9.868174042E0,-8.977171719E-2,3.139366429E-2,1.319985545E-1,1.626903247E-1
9.878210042E0,-1.114835984E-1,-2.528328739E-2,1.407103211E-1,1.812932204E-1
9.888247042E0,-7.466338903E-2,-6.554812800E-2,2.002922791E-1,2.235803565E-1
9.898283042E0,-3.843637973E-2,-9.901773658E-2,2.405912894E-1,2.629943649E-1
9.908320042E0,-2.497579694E-2,-9.115915183E-2,2.249955958E-1,2.440426183E-1
9.918356042E0,-3.016870916E-3,-9.103767592E-2,1.450466162E-1,1.712760369E-1
9.928393042E0,-1.264752746E-3,-5.081862632E-2,2.210656822E-2,5.543313755E-2
9.938429042E0,4.245663285E-2,-2.258238539E-2,-1.283726960E-1,1.370842037E-1
9.948465042E0,6.995901167E-2,1.157883916E-2,-1.921465230E-1,2.048136205E-1
9.958502042E0,1.093514112E-1,5.701528620E-3,-1.910197645E-1,2.201789931E-1
9.968538042E0,1.187443784E-1,-1.423437042E-2,-1.620894957E-1,2.014344789E-1
9.978575042E0,1.104001093E-1,-4.073868435E-2,-1.215729690E-1,1.691975512E-1
9.988611042E0,8.742873788E-2,-6.734011687E-2,-6.825864136E-2,1.297602315E-1
9.998648042E0,6.871267766E-2,-6.537678631E-2,-3.633518279E-2,1.015667355E-1
1.000868404E1,7.019406974E-2,-5.270424373E-2,-4.108896911E-2,9.691877072E-2
1.001872104E1,6.517686635E-2,-2.547016075E-2,-3.729354143E-2,7.929414372E-2
1.002875704E1,7.124686092E-2,-4.899016544E-3,-1.284925640E-2,7.256182842E-2
1.003879404E1,8.704632998E-2,5.347315259E-3,1.438473523E-2,8.838878860E-2
1.004883004E1,7.745660394E-2,-1.202494517E-2,3.949501812E-2,8.777232626E-2
1.005886704E1,5.259599715E-2,-8.177806176E-3,4.963116646E-2,7.277683776E-2
1.006890304E1,3.713829786E-2,-7.694405895E-3,4.694729447E-2,6.035317314E-2
1.007894004E1,3.250818014E-2,4.135077819E-5,3.081775010E-2,4.479416488E-2
1.008897604E1,3.400682151E-2,2.672961446E-2,3.324375987E-2,5.455349456E-2
1.009901304E1,1.648973286E-2,3.793063212E-2,3.636383414E-3,4.151948250E-2
1.010904904E1,1.743054986E-3,5.435071003E-2,-2.640193284E-2,6.044915201E-2
1.011908504E1,-1.450109482E-3,3.316695121E-2,-3.189714611E-2,4.603886836E-2
1.012912204E1,-1.451454341E-2,3.228932982E-3,-3.855654001E-3,1.536112126E-2
1.013915804E1,-2.486089915E-2,-2.607664492E-2,1.405378282E-2,3.867252938E-2
1.014919504E1,-5.027523726E-2,-7.305319374E-2,1.568047822E-2,9.005690421E-2
1.015923104E1,-7.331765234E-2,-8.545186736E-2,-4.143921733E-3,1.126706345E-1
1.016926804E1,-5.078336030E-2,-9.670065860E-2,4.641519785E-3,1.093229654E-1
1.017930404E1,-3.244152188E-2,-6.085471418E-2,1.396315098E-3,6.897607031E-2
1.018934104E1,1.009521782E-2,-2.923162890E-2,-5.858910084E-4,3.093129191E-2
1.019937704E1,3.622730166E-2,-2.070601389E-2,-6.427844167E-3,4.221935074E-2
1.020941404E1,1.674701035E-2,-1.196269060E-2,-9.240939617E-3,2.256021469E-2
1.021945004E1,2.189665318E-2,-2.297563805E-2,5.975269675E-3,3.229624145E-2
1.022948704E1,3.791948587E-2,-1.080859641E-2,3.163109779E-2,5.054937697E-2
1.023952304E1,5.324386865E-2,3.127556881E-3,5.187649727E-2,7.440337445E-2
1.024956004E1,5.621279240E-2,1.041224655E-2,7.698210239E-2,9.588814836E-2
1.025959604E1,9.623435229E-2,2.391155801E-2,1.009545171E-1,1.415084015E-1
1.026963204E1,1.300581560E-1,2.899548361E-2,1.148667973E-1,1.759268119E-1
1.027966904E1,1.859543216E-1,-8.376410510E-3,1.066596454E-1,2.145354375E-1
1.028970504E1,2.055574045E-1,-3.430500210E-2,1.142540091E-1,2.376650128E-1
1.029974204E1,1.862744567E-1,-3.586746949E-2,8.692880094E-2,2.086654380E-1
1.030977804E1,1.404223457E-1,-3.935972817E-2,-2.572190166E-3,1.458569146E-1
1.031981504E1,5.184989244E-2,2.484075367E-3,-1.468662697E-1,1.557699687E-1
1.032985104E1,-4.367490023E-2,4.132516008E-2,-2.518501031E-1,2.589280599E-1
1.033988804E1,-1.318918428E-1,3.999151526E-2,-3.192445260E-1,3.477238083E-1
1.034992404E1,-1.911796859E-1,3.771251727E-2,-3.006842941E-1,3.583056670E-1
1.035996104E1,-2.017929670E-1,2.326688878E-2,-1.900368476E-1,2.781649746E-1
1.036999704E1,-1.875453490E-1,-4.613137948E-3,-2.736672342E-2,1.895876487E-1
1.038003404E1,-1.849141020E-1,-7.962430383E-2,1.074823487E-1,2.282229396E-1
1.039007004E1,-2.001431751E-1,-1.348999429E-1,1.790277100E-1,3.005099101E-1
1.040010704E1,-2.163224208E-1,-1.646437239E-1,2.132239813E-1,3.454958925E-1
1.041014304E1,-2.015096694E-1,-1.203748927E-1,1.494805598E-1,2.782816908E-1
1.042018004E1,-1.999961177E-1,-4.420888807E-2,4.791676283E-2,2.103541990E-1
1.043021604E1,-1.717818403E-1,1.908248421E-2,-2.901096046E-2,1.752563200E-1
1.044025204E1,-1.562431571E-1,5.628755453E-2,-7.456837177E-2,1.820457497E-1
1.045028904E1,-1.468010733E-1,5.692696127E-2,-6.360835075E-2,1.698153595E-1
1.046032504E1,-1.154775390E-1,2.207171561E-2,-4.033350885E-2,1.242940649E-1
1.047036204E1,-1.103343281E-1,-2.929475599E-2,2.047110200E-3,1.141754674E-1
1.048039804E1,-6.369021177E-2,-7.859718558E-2,3.713274300E-2,1.077627081E-1
1.049043504E1,-4.353339761E-2,-6.037632971E-2,2.965649307E-2,8.012468707E-2
1.050047104E1,-9.651998878E-3,-2.334961774E-2,-1.222945154E-2,2.807000563E-2
1.051050804E1,1.008995533E-2,2.293711267E-2,-4.645671308E-2,5.278394194E-2
1.052054404E1,3.013859600E-2,6.287712903E-2,-1.121191907E-1,1.320325007E-1
1.053058104E1,5.828416854E-2,1.188448957E-1,-1.484473568E-1,1.988913555E-1
1.054061704E1,7.961978137E-2,1.449473232E-1,-1.178915620E-1,2.030946983E-1
1.055065404E1,9.346247971E-2,1.396565432E-1,-4.871315360E-2,1.749633004E-1
1.056069004E1,1.053171247E-1,1.092480525E-1,2.701589048E-2,1.541320605E-1
1.057072704E1,1.177626309E-1,8.343841519E-2,8.987638235E-2,1.700228528E-1
1.058076304E1,1.261077771E-1,6.320710842E-2,1.468212461E-1,2.036044899E-1
1.059080004E1,1.571623394E-1,4.623622280E-2,1.870693856E-1,2.486619076E-1
1.060083604E1,2.026609862E-1,4.819307575E-2,1.875833559E-1,2.803240327E-1
1.061087304E1,2.409383217E-1,6.290359225E-2,1.728992432E-1,3.031538967E-1
1.062090904E1,2.561144775E-1,4.500149642E-2,1.080460203E-1,2.815913755E-1
1.063094504E1,2.508958375E-1,1.586477058E-2,2.514828980E-2,2.526516351E-1
1.064098204E1,2.067926288E-1,-1.116576078E-2,-7.592375636E-2,2.205726237E-1
1.065101804E1,1.342678589E-1,-4.828312287E-2,-1.758591038E-1,2.264631146E-1
1.066105504E1,5.620255977E-2,-7.549783695E-2,-2.564389980E-1,2.731659034E-1
1.067109104E1,-4.149447352E-2,-9.083863305E-2,-2.848225522E-1,3.018233504E-1
1.068112804E1,-7.907423615E-2,-1.011979075E-1,-2.943763179E-1,3.211715551E-1
1.069116404E1,-1.525199425E-1,-8.714548596E-2,-3.000106949E-1,3.476536863E-1
1.070120104E1,-1.998718643E-1,-1.125207665E-1,-2.763253784E-1,3.591175292E-1
1.071123704E1,-2.094519424E-1,-1.155774807E-1,-1.904905915E-1,3.058021185E-1
1.072127404E1,-2.073019212E-1,-1.181469939E-1,-7.179328322E-2,2.491727799E-1
1.073131004E1,-1.864349627E-1,-1.285007866E-1,3.807122111E-2,2.296080690E-1
1.074134704E1,-1.878572980E-1,-1.339185791E-1,9.414660394E-2,2.491749049E-1
1.075138196E1,-2.377191371E-1,-1.324655734E-1,6.826916635E-2,2.805676306E-1
1.076141896E1,-2.591404116E-1,-1.064943976E-1,-3.550312400E-2,2.824097758E-1
1.077145496E1,-2.599344635E-1,-6.259774175E-2,-1.127290553E-1,2.901589952E-1
1.078149096E1,-2.509192264E-1,-2.508185995E-2,-1.644932860E-1,3.010773971E-1
1.079152796E1,-2.187984243E-1,6.339432439E-3,-1.766139793E-1,2.812568872E-1
1.080156396E1,-2.197056198E-1,-7.627784181E-3,-1.544261348E-1,2.686562368E-1
1.081160096E1,-2.160171962E-1,-3.011396003E-2,-9.544994831E-2,2.380776602E-1
1.082163696E1,-1.652203873E-1,-4.288450743E-2,-1.694581568E-2,1.715343057E-1
1.083167396E1,-9.890243679E-2,-4.186546565E-2,5.973340094E-2,1.228921820E-1
1.084170996E1,-2.111488044E-2,-3.744108313E-2,1.157830560E-1,1.235046110E-1
1.085174696E1,2.152243137E-2,-3.215741116E-2,1.494788057E-1,1.544060474E-1
1.086178296E1,6.472575366E-2,-3.476766304E-2,1.341935992E-1,1.529906391E-1
1.087181996E1,1.211405674E-1,3.238261119E-3,1.121127588E-1,1.650902604E-1
1.088185596E1,1.407959828E-1,6.253752457E-2,6.495905757E-2,1.671948860E-1
1.089189296E1,1.721937767E-1,8.585847725E-2,9.994645715E-3,1.926713985E-1
1.090192896E1,2.090128165E-1,7.923320733E-2,-3.580425560E-2,2.263762429E-1
1.091196596E1,2.548579109E-1,9.660099098E-2,-5.293133497E-2,2.776437149E-1
1.092200196E1,3.007205468E-1,1.029570697E-1,-5.674255013E-2,3.228819018E-1
1.093203896E1,3.095896035E-1,7.667562607E-2,-3.185387671E-2,3.205300980E-1
1.094207496E1,3.205943558E-1,5.225951730E-2,8.295444846E-3,3.249317044E-1
1.095211096E1,3.281121209E-1,-7.428311901E-3,5.081464291E-2,3.321067173E-1
1.096214796E1,3.218000516E-1,-6.285789717E-2,8.259075165E-2,3.381236767E-1
1.097218396E1,3.032564843E-1,-8.126984736E-2,9.156505823E-2,3.270373728E-1
1.098222096E1,2.936845922E-1,-5.698811492E-2,4.063639462E-2,3.019099229E-1
1.099225696E1,2.415894091E-1,-3.137581201E-2,-4.564687371E-2,2.478578650E-1
1.100229396E1,1.935618415E-1,-2.615601174E-2,-1.311787748E-1,2.352832217E-1
1.101232996E1,1.241776112E-1,-3.303344283E-2,-1.741762751E-1,2.164455180E-1
1.102236696E1,5.562924027E-2,-2.054105845E-2,-2.481704503E-1,2.551570494E-1
1.103240296E1,3.444360852E-2,1.420486939E-2,-3.214202750E-1,3.235724550E-1
1.104243996E1,4.273993045E-2,5.183064231E-2,-3.270289242E-1,3.338578057E-1
1.105247596E1,1.960249811E-2,8.791257670E-2,-3.312009126E-1,3.432301321E-1
1.106251296E1,-1.145557255E-2,7.594061279E-2,-3.176616848E-1,3.268136361E-1
1.107254896E1,-4.101441711E-2,7.182837565E-2,-2.782725012E-1,2.903051548E-1
1.108258596E1,-5.767459631E-2,4.517573431E-2,-1.838037157E-1,1.978661465E-1
1.109262196E1,-6.804141730E-2,9.404168297E-3,-5.111635923E-2,8.562099644E-2
1.110265896E1,-1.209481940E-1,-5.890582806E-2,4.754838824E-2,1.426857086E-1
1.111269496E1,-1.366584930E-1,-1.023160139E-1,1.176886636E-1,2.073517107E-1
1.112273196E1,-1.408456841E-1,-1.131614752E-1,1.065403622E-1,2.097471692E-1
1.113276796E1,-1.587293932E-1,-6.399715405E-2,9.036696374E-2,1.935377072E-1
1.114280396E1,-1.529792413E-1,-2.084906054E-2,3.492834270E-2,1.582950433E-1
1.115284096E1,-1.331697518E-1,4.351204614E-2,-2.469337642E-2,1.422576669E-1
1.116287696E1,-1.265828633E-1,1.071863334E-1,-9.372385025E-2,1.905158562E-1
1.117291396E1,-1.061450905E-1,1.273119380E-1,-8.039804578E-2,1.842252848E-1
1.118294996E1,-7.765599400E-2,1.199855687E-1,-3.258360922E-2,1.465901828E-1
1.119298696E1,-7.274871826E-2,8.913990727E-2,1.849708200E-2,1.165351497E-1
1.120302296E1,-9.743683219E-2,4.882642513E-2,2.424957275E-2,1.116512330E-1
1.121305996E1,-1.197129697E-1,6.118028075E-2,1.097522378E-2,1.348876473E-1
1.122309596E1,-1.268509582E-1,6.995971974E-2,-1.678150892E-2,1.458325993E-1
1.123313296E1,-1.010623983E-1,1.191856787E-1,-3.051486433E-2,1.592168060E-1
1.124316896E1,-7.278935641E-2,1.673612539E-1,-2.022025645E-2,1.836217266E-1
1.125320596E1,-6.118175626E-2,1.688599867E-1,-2.370461226E-3,1.796177093E-1
1.126324196E1,-4.985657662E-2,1.548612042E-1,-1.476480424E-2,1.633574922E-1
1.127327896E1,-4.918707043E-2,1.754885182E-1,-7.699905932E-2,1.978495465E-1
1.128331496E1,-5.964890867E-2,1.998160965E-1,-9.556046069E-2,2.293823585E-1
1.129335096E1,-6.905123144E-2,1.961130548E-1,-7.820358574E-2,2.221355524E-1
1.130338796E1,-5.867534727E-2,1.825338101E-1,-7.267153502E-2,2.050427765E-1
1.131342396E1,-8.444168776E-2,1.818136889E-1,1.342871547E-2,2.009152720E-1
1.132346096E1,-8.768718481E-2,1.285581076E-1,1.104012787E-1,1.908000832E-1
1.133349696E1,-5.899372816E-2,9.431652951E-2,2.046274048E-1,2.329125211E-1
1.134353396E1,-3.230732828E-2,4.032137588E-2,3.210951698E-1,3.252255907E-1
1.135356996E1,-8.990094066E-4,-2.680557344E-2,3.785300303E-1,3.794790255E-1
1.136360696E1,9.122182667E-2,-3.777632730E-2,4.641385299E-1,4.745240220E-1
1.137364296E1,1.569685042E-1,-8.302790411E-2,4.387861723E-1,4.733561546E-1
1.138367996E1,2.026726806E-1,-4.186359728E-2,3.414697927E-1,3.992873597E-1
1.139371596E1,2.333913204E-1,-1.178105689E-2,2.267848438E-1,3.256403954E-1
1.140375296E1,2.731339681E-1,4.504664332E-2,5.155782402E-2,2.815840440E-1
1.141378896E1,2.601984653E-1,7.812360680E-2,-9.822679102E-2,2.888858628E-1
1.142382596E1,2.055986273E-1,9.453641223E-2,-2.267480063E-1,3.203476037E-1
1.143386196E1,1.265805244E-1,5.604386725E-2,-3.426567775E-1,3.695635418E-1
1.144389896E1,5.074038327E-2,4.315084353E-2,-4.352947998E-1,4.403613795E-1
1.145393496E1,-3.464182913E-2,2.527872382E-2,-4.378523719E-1,4.399474626E-1
1.146397096E1,-1.052843803E-1,-1.090637738E-2,-4.100067616E-1,4.234492819E-1
1.147400796E1,-1.861639443E-1,-1.029295878E-2,-3.376843053E-1,3.857377985E-1
1.148404396E1,-2.327604058E-1,7.643937115E-3,-2.382623434E-1,3.331737994E-1
1.149408096E1,-2.484555021E-1,1.545559796E-2,-1.377533841E-1,2.845083599E-1
1.150411696E1,-2.714353520E-1,2.276745890E-3,-2.317953229E-2,2.724327891E-1
1.151415396E1,-2.765481573E-1,6.005241224E-3,1.117940855E-1,2.983502368E-1
1.152418996E1,-2.725007147E-1,-6.294404310E-3,2.444276476E-1,3.661162847E-1
1.153422696E1,-2.341774786E-1,-2.625456473E-2,3.875511146E-1,4.535683631E-1
1.154426296E1,-2.130593821E-1,-3.870568056E-2,5.137656033E-1,5.575370169E-1
1.155429996E1,-1.835215876E-1,-2.782158655E-2,5.162810755E-1,5.486349995E-1
1.156433596E1,-1.549251947E-1,3.663198380E-3,4.596946460E-1,4.851127730E-1
1.157437296E1,-8.311963230E-2,5.202810918E-2,3.580858254E-1,3.712697884E-1
1.158440896E1,6.840365231E-3,1.021153356E-1,2.976466656E-1,3.147504883E-1
1.159444596E1,1.211622021E-1,1.142172448E-1,2.467729658E-1,2.976957421E-1
1.160448196E1,1.794814539E-1,9.917460641E-2,1.612153369E-1,2.608439758E-1
1.161451896E1,2.211761945E-1,1.217495823E-1,1.192679965E-1,2.792252224E-1
1.162455496E1,2.423170951E-1,6.999774034E-2,8.470978260E-2,2.660695501E-1
1.163459196E1,2.776538658E-1,2.802503767E-2,4.644677281E-2,2.829034723E-1
1.164462796E1,3.092285380E-1,-6.587171657E-3,-2.483838737E-2,3.102944167E-1
1.165466396E1,3.140934214E-1,-1.942396617E-2,-1.465668923E-1,3.471510071E-1
1.166470096E1,2.878674898E-1,3.098785839E-2,-2.353457522E-1,3.731160170E-1
1.167473696E1,3.109543437E-1,8.841138988E-2,-3.616467798E-1,4.850748097E-1
1.168477396E1,2.822193718E-1,1.376648445E-1,-5.060297370E-1,5.955379736E-1
1.169480996E1,1.971309820E-1,1.527586825E-1,-5.773084652E-1,6.288727241E-1
1.170484696E1,1.138414881E-1,1.114856266E-1,-5.978362852E-1,6.187060314E-1
1.171488296E1,3.509995848E-2,6.133345496E-2,-5.343863940E-1,5.390386052E-1
1.172491996E1,-9.974852890E-2,3.836989506E-2,-4.166263944E-1,4.301157639E-1
1.173495596E1,-1.881151602E-1,1.074455112E-2,-3.621373612E-1,4.082232566E-1
1.174499296E1,-2.715979046E-1,3.315010392E-2,-3.070688689E-1,4.112853527E-1
1.175502896E1,-3.690999332E-1,5.919871875E-2,-2.343774533E-1,4.412165450E-1
1.176506596E1,-4.242874163E-1,3.909129529E-2,-1.581414557E-1,4.544850504E-1
1.177510196E1,-4.114752898E-1,4.539685956E-2,-9.945002854E-2,4.257500407E-1
1.178513896E1,-4.034812689E-1,2.950878692E-2,5.272960603E-2,4.079807767E-1
1.179517496E1,-3.997677022E-1,-1.633569527E-2,1.954133624E-1,4.452723356E-1
1.180521196E1,-3.719644842E-1,-6.323323360E-2,2.928893709E-1,4.776402442E-1
1.181524796E1,-3.863957047E-1,-9.364773595E-2,3.945537400E-1,5.601287288E-1
1.182528496E1,-3.490071461E-1,-1.014755406E-1,4.426190221E-1,5.727258263E-1
1.183532096E1,-2.717034468E-1,-8.715517955E-2,4.763925397E-1,5.553094995E-1
1.184535696E1,-1.856224921E-1,-6.831144903E-2,4.682391822E-1,5.083011857E-1
1.185539396E1,-8.697528630E-2,-4.205176799E-2,4.435843974E-1,4.539825649E-1
1.186542996E1,-1.080331564E-2,1.051754211E-2,3.828581393E-1,3.831549101E-1
1.187546696E1,4.885670274E-2,5.690028791E-2,2.756266361E-1,2.856477949E-1
1.188550296E1,7.759810656E-2,1.011031004E-1,1.253058314E-1,1.787312352E-1
1.189553996E1,1.607946298E-1,1.279975972E-1,6.561803877E-2,2.157406426E-1
1.190557596E1,2.512662587E-1,1.608343177E-1,1.189884996E-1,3.211863533E-1
1.191561296E1,3.710186970E-1,1.749440876E-1,2.093835300E-1,4.605450792E-1
1.192564896E1,3.960883418E-1,1.609016338E-1,2.904300320E-1,5.168412849E-1
1.193568596E1,3.763519424E-1,1.003212819E-1,2.428863215E-1,4.590195087E-1
1.194572196E1,2.784093261E-1,7.842967199E-2,7.843338132E-2,2.996911103E-1
1.195575896E1,1.488341501E-1,8.352203038E-2,-1.500114870E-1,2.272245146E-1
1.196579496E1,4.334862560E-2,1.049784978E-1,-3.212711710E-1,3.407561498E-1
1.197583196E1,-3.582589030E-2,1.107598410E-1,-3.878545851E-1,4.049474237E-1
1.198586796E1,-1.205005896E-1,8.641276589E-2,-3.120968896E-1,3.455315133E-1
1.199590496E1,-1.522948247E-1,4.439810945E-2,-9.339114368E-2,1.840837078E-1
1.200594096E1,-1.218919346E-1,-1.534620021E-2,1.109409767E-1,1.655326249E-1
1.201597696E1,-2.000718391E-1,-8.198929243E-2,1.903128362E-1,2.880450668E-1
1.202601396E1,-2.303738648E-1,-1.407293976E-1,2.679568434E-1,3.803652861E-1
1.203604996E1,-2.266477266E-1,-2.122789068E-1,3.563895482E-1,4.726997316E-1
1.204608696E1,-2.123156163E-1,-2.278348758E-1,4.541620106E-1,5.506811994E-1
1.205612296E1,-1.658501324E-1,-2.509294042E-1,4.935242969E-1,5.779602615E-1
1.206615996E1,-9.163668662E-2,-2.510547904E-1,5.645662129E-1,6.246285287E-1
1.207619596E1,1.596845359E-2,-2.253645186E-1,5.827399439E-1,6.250039999E-1
1.208623296E1,1.152790260E-1,-1.853351015E-1,5.677669787E-1,6.082743590E-1
1.209626896E1,2.561928302E-1,-1.576180933E-1,4.889979672E-1,5.741056014E-1
1.210630596E1,3.658547285E-1,-1.366909816E-1,3.970195109E-1,5.569188440E-1
1.211634196E1,3.841559288E-1,-1.702633184E-1,3.050966030E-1,5.192776833E-1
1.212637896E1,4.220146036E-1,-2.336473188E-1,2.180993897E-1,5.293909132E-1
1.213641496E1,4.454438120E-1,-2.564934136E-1,1.258426058E-1,5.291931805E-1
1.214645196E1,4.730321449E-1,-2.704538603E-1,6.674245834E-2,5.489619808E-1
1.215648796E1,5.043822840E-1,-2.315266433E-1,-3.657667279E-2,5.561869541E-1
1.216652496E1,5.512582424E-1,-2.031000390E-1,-1.023058087E-1,5.963235315E-1
1.217656096E1,5.681970415E-1,-1.706285501E-1,-1.278815299E-1,6.068901595E-1
1.218659696E1,6.066559330E-1,-1.339116172E-1,-1.729261404E-1,6.448776568E-1
1.219663396E1,6.773867771E-1,-1.194278448E-1,-1.978329402E-1,7.157190288E-1
1.220666996E1,7.279859501E-1,-1.417780957E-1,-1.477649868E-1,7.562400831E-1
1.221670696E1,7.274088299E-1,-1.411568291E-1,-1.344403517E-1,7.530757362E-1
1.222674296E1,7.001801008E-1,-1.200824406E-1,-1.923172617E-1,7.359741132E-1
1.223677996E1,6.283564121E-1,-6.841958597E-2,-3.123196685E-1,7.050224079E-1
1.224681596E1,5.213532427E-1,2.480827421E-3,-4.477610636E-1,6.872447368E-1
1.225685296E1,4.294624946E-1,5.978997275E-2,-4.965104699E-1,6.591930839E-1
1.226688896E1,3.810332233E-1,1.161775969E-1,-4.859001124E-1,6.283171735E-1
1.227692596E1,3.213813910E-1,1.393745977E-1,-4.342820621E-1,5.579535701E-1
1.228696196E1,3.063081461E-1,1.370232861E-1,-2.601081258E-1,4.245660119E-1
1.229699896E1,2.757482582E-1,4.459751777E-2,-1.243860644E-1,3.057743180E-1
1.230703496E1,2.191220677E-1,-3.381539829E-2,-4.181753218E-2,2.256250600E-1
1.231707196E1,2.190504393E-1,-1.482481860E-1,1.640085518E-1,3.112224682E-1
1.232710796E1,1.526175910E-1,-2.603376290E-1,3.086283213E-1,4.316471370E-1
1.233714496E1,8.471285239E-2,-3.187915130E-1,3.087353253E-1,4.517984033E-1
1.234718096E1,7.472624660E-2,-2.961350872E-1,2.731018084E-1,4.097128258E-1
1.235721796E1,8.064669862E-2,-1.945280939E-1,1.054498565E-1,2.355095360E-1
1.236725396E1,7.133398443E-2,-9.720031232E-2,-1.169191700E-1,1.679479990E-1
1.237728996E1,1.239273503E-2,-4.239012077E-2,-2.920818704E-1,2.954019656E-1
1.238732696E1,-5.491412580E-2,-5.517958939E-2,-4.756481892E-1,4.819767092E-1
1.239736296E1,-9.985889509E-2,-6.994234711E-2,-5.711677194E-1,5.840344977E-1
1.240739996E1,-1.702669729E-1,-5.780718192E-2,-6.062662160E-1,6.323695415E-1
1.241743596E1,-2.327770704E-1,-2.850605339E-2,-6.467499983E-1,6.879558997E-1
1.242747296E1,-2.895991427E-1,-7.660729587E-3,-6.706376284E-1,7.305348581E-1
1.243750896E1,-3.655712847E-1,-2.012056142E-2,-6.144885707E-1,7.152925309E-1
1.244754596E1,-4.191488832E-1,-3.602498800E-2,-5.261909366E-1,6.736916860E-1
1.245758196E1,-4.763894700E-1,-4.814334244E-2,-4.237155586E-1,6.393743685E-1
1.246761896E1,-5.065004379E-1,-5.695568115E-2,-2.458169460E-1,5.658733199E-1
1.247765496E1,-5.211640853E-1,-7.567875803E-2,-1.024502349E-1,5.365028693E-1
1.248769196E1,-5.440274294E-1,-1.316797350E-1,4.559541821E-2,5.615908998E-1
1.249772796E1,-5.638180616E-1,-2.191515961E-1,1.442975879E-1,6.218842518E-1
1.250776496E1,-5.297659242E-1,-2.791573311E-1,2.183864880E-1,6.373958018E-1
1.251780096E1,-4.468703865E-1,-3.137748943E-1,2.976829183E-1,6.219026825E-1
1.252783796E1,-3.244182886E-1,-3.235966086E-1,3.120512813E-1,5.543807295E-1
1.253787396E1,-2.116288608E-1,-2.748029096E-1,2.132584798E-1,4.071640862E-1
1.254790996E1,-5.546434879E-2,-1.917496432E-1,1.192633188E-1,2.325251790E-1
1.255794696E1,7.106501251E-2,-7.486833394E-2,-2.335144043E-2,1.058337999E-1
1.256798296E1,1.515642151E-1,-2.263354853E-2,-1.821583092E-1,2.380454546E-1
1.257801996E1,2.113693906E-1,-4.120240510E-3,-2.758704650E-1,3.475607992E-1
1.258805596E1,1.939565286E-1,-6.044559181E-3,-3.352536178E-1,3.873637308E-1
1.259809296E1,1.244845900E-1,-5.201010615E-2,-4.466454148E-1,4.665764577E-1
1.260812896E1,5.004281044E-2,-9.055436701E-2,-6.877869272E-1,6.955251495E-1
1.261816596E1,-3.869424194E-2,-7.813502714E-2,-8.800691056E-1,8.843777233E-1
1.262820196E1,-1.459643367E-1,-4.200800523E-2,-1.022541193E0,1.033760490E0
1.263823896E1,-2.147660382E-1,8.652709723E-3,-1.039604537E0,1.061591689E0
1.264827496E1,-2.647718650E-1,4.510863751E-2,-9.225584829E-1,9.608605955E-1
1.265831196E1,-2.932457587E-1,1.700501874E-2,-7.284040260E-1,7.854009618E-1
1.266834796E1,-2.804334860E-1,-3.052509695E-2,-4.940125394E-1,5.688788190E-1
1.267838496E1,-3.038651794E-1,-8.825714216E-2,-2.513209301E-1,4.040861051E-1
1.268842096E1,-3.039702831E-1,-1.730783142E-1,-7.556064427E-2,3.578595351E-1
1.269845796E1,-3.124271111E-1,-2.088641511E-1,4.524984777E-2,3.785267257E-1
1.270849396E1,-3.035567388E-1,-1.973082988E-1,1.556347543E-1,3.940804933E-1
1.271853096E1,-3.032975610E-1,-1.547605956E-1,1.960074395E-1,3.928856943E-1
1.272856696E1,-3.120723313E-1,-9.155877247E-2,2.111371100E-1,3.877512450E-1
1.273860296E1,-3.039737915E-1,-7.364129573E-3,2.057915854E-1,3.671572864E-1
1.274864046E1,-3.185044147E-1,6.622044817E-2,1.231107867E-1,3.478311023E-1
1.275867646E1,-3.225613591E-1,1.141672511E-1,7.733293533E-2,3.507996216E-1
1.276871346E1,-3.154713178E-1,1.350942897E-1,1.168741465E-1,3.625357714E-1
1.277874946E1,-3.068284021E-1,1.099177871E-1,1.672011316E-1,3.663083492E-1
1.278878646E1,-3.189983582E-1,9.967485398E-2,1.852807224E-1,3.821308351E-1
1.279882246E1,-3.224881227E-1,9.923010014E-2,1.645839179E-1,3.754105327E-1
1.280885946E1,-3.197196123E-1,1.230246133E-1,1.803176057E-1,3.871306303E-1
1.281889546E1,-2.769448909E-1,1.427814049E-1,2.020920521E-1,3.713841673E-1
1.282893246E1,-2.046566409E-1,1.674618443E-1,2.243722826E-1,3.468007081E-1
1.283896846E1,-1.371474664E-1,2.137367090E-1,2.383804572E-1,3.483074083E-1
1.284900546E1,-7.867633313E-2,2.354382844E-1,2.368940949E-1,3.431325741E-1
1.285904146E1,-5.317384824E-2,2.216645832E-1,2.176134861E-1,3.151480206E-1
1.286907846E1,-5.813623399E-2,2.050636802E-1,1.316535687E-1,2.505266389E-1
1.287911446E1,-4.961771786E-2,1.841674856E-1,2.139730096E-2,1.919307822E-1
1.288915146E1,-4.276127279E-2,1.866002197E-1,-3.576800287E-2,1.947498869E-1
1.289918746E1,-1.705428153E-2,1.949585221E-1,-1.096148282E-1,2.243102415E-1
1.290922446E1,-1.199205458E-2,2.318658549E-1,-1.919892329E-1,3.012730483E-1
1.291926046E1,-6.646179199E-2,2.616650932E-1,-3.134511048E-1,4.136875462E-1
1.292929646E1,-1.267261201E-1,2.624432114E-1,-3.652802396E-1,4.672960541E-1
1.293933346E1,-2.413277462E-1,2.344807298E-1,-3.880498821E-1,5.136175666E-1
1.294936946E1,-3.482850149E-1,2.047401099E-1,-3.582249892E-1,5.399500969E-1
1.295940646E1,-3.991885355E-1,1.869259096E-1,-2.870977038E-1,5.260398028E-1
1.296944246E1,-4.371717560E-1,1.524615435E-1,-1.252222162E-1,4.796293047E-1
1.297947946E1,-4.684452966E-1,8.387392312E-2,2.905773818E-2,4.767810640E-1
1.298951546E1,-4.922148129E-1,4.001074255E-2,1.540179992E-1,5.172985846E-1
1.299955246E1,-5.191272077E-1,3.387036212E-2,1.753036183E-1,5.489732396E-1
1.300958846E1,-5.457527965E-1,6.262799196E-2,1.186049223E-1,5.619924447E-1
1.301962546E1,-5.834474570E-1,1.123214313E-1,6.591507733E-2,5.978058517E-1
1.302966146E1,-5.839900786E-1,1.405384129E-1,4.366174400E-2,6.022472958E-1
1.303969846E1,-5.541026205E-1,1.470571082E-1,6.627409637E-2,5.771029050E-1
1.304973446E1,-4.841465324E-1,1.389402958E-1,2.080445176E-1,5.449631106E-1
1.305977146E1,-3.796085492E-1,7.474429987E-2,3.943292069E-1,5.524354120E-1
1.306980746E1,-2.767434543E-1,1.652978629E-2,5.025640923E-1,5.739606608E-1
1.307984446E1,-1.990453604E-1,-1.795500856E-2,5.188737309E-1,5.560318214E-1
1.308988046E1,-1.471384576E-1,-3.901105139E-2,4.508583337E-1,4.758621911E-1
1.309991746E1,-8.407769859E-2,-5.404924951E-2,3.311248988E-1,3.458815973E-1
1.310995346E1,-6.367442429E-2,-3.752370246E-2,2.125474584E-1,2.250308482E-1
1.311998946E1,-1.326002330E-2,-3.081314541E-2,1.392122644E-1,1.431968321E-1
1.313002646E1,4.596847057E-2,-2.798769772E-2,4.820736945E-2,7.225207249E-2
1.314006246E1,1.140861940E-1,-1.743413128E-2,-1.424030900E-2,1.162858332E-1
1.315009946E1,1.885080931E-1,-1.851224821E-2,-8.153766811E-2,2.062192906E-1
1.316013546E1,2.468445942E-1,-2.883389946E-2,-1.220541948E-1,2.768770014E-1
1.317017246E1,2.907621539E-1,-3.199077465E-2,-1.193054187E-1,3.159110994E-1
1.318020846E1,3.053147042E-1,-5.040435109E-2,-1.224272472E-1,3.327853633E-1
1.319024546E1,3.113452300E-1,-3.067226406E-2,-1.223763764E-1,3.359354366E-1
1.320028146E1,3.172599810E-1,-7.062120885E-3,-1.370429474E-1,3.456653563E-1
1.321031846E1,3.240447977E-1,4.591098513E-2,-1.709766787E-1,3.692504220E-1
1.322035446E1,3.117633060E-1,5.024530683E-2,-1.837060672E-1,3.653339143E-1
1.323039146E1,2.642365524E-1,3.539769139E-2,-1.552546853E-1,3.085092697E-1
1.324042746E1,2.133502811E-1,-3.494880795E-3,-1.101369846E-1,2.401264501E-1
1.325046446E1,1.376744467E-1,-4.295697179E-2,-1.001271361E-1,1.755704932E-1
1.326050046E1,7.259639829E-2,-6.862051092E-2,-1.215063107E-1,1.572984269E-1
1.327053746E1,1.927359223E-2,-7.950539522E-2,-1.782740039E-1,1.961484124E-1
1.328057346E1,-2.389318496E-2,-7.636116464E-2,-2.849500215E-1,2.959703136E-1
1.329061046E1,-4.198242366E-2,-8.552188776E-2,-3.565257883E-1,3.690354386E-1
1.330064646E1,-3.505932033E-2,-1.166979991E-1,-3.920879692E-1,4.105856239E-1
1.331068246E1,-2.055179358E-2,-1.597886711E-1,-4.005722791E-1,4.317556559E-1
1.332071946E1,2.196506560E-3,-1.869355027E-1,-3.815822768E-1,4.249173341E-1
1.333075546E1,-8.532549441E-3,-2.206851198E-1,-3.919528985E-1,4.498908769E-1
1.334079246E1,-1.945310175E-2,-2.522002965E-1,-3.793498099E-1,4.559492198E-1
1.335082846E1,-3.814460367E-2,-2.899550371E-1,-2.926642531E-1,4.137406185E-1
1.336086546E1,-7.479465902E-2,-3.179763380E-1,-2.252324080E-1,3.967780617E-1
1.337090146E1,-1.185976133E-1,-3.124174632E-1,-1.965377820E-1,3.876817831E-1
1.338093846E1,-1.011100531E-1,-2.605804712E-1,-1.893158859E-1,3.375884024E-1
1.339097446E1,-7.577114403E-2,-1.939316048E-1,-1.319985545E-1,2.465245465E-1
1.340101146E1,-1.073086864E-1,-2.173374427E-1,-9.735731006E-2,2.612071285E-1
1.341104746E1,-1.026285750E-1,-1.779638091E-1,-8.542548180E-2,2.224887743E-1
1.342108446E1,-5.240450084E-2,-1.596668846E-1,2.350580692E-4,1.680470202E-1
1.343112046E1,-1.678530961E-2,-1.145113232E-1,7.514841557E-2,1.379922973E-1
1.344115746E1,2.720563263E-2,-3.905220574E-2,7.806559145E-2,9.143007049E-2
1.345119346E1,3.907606512E-2,2.573132115E-2,4.987382591E-2,6.838448848E-2
1.346123046E1,2.172328323E-2,1.157575932E-1,2.024773836E-2,1.195060347E-1
1.347126646E1,2.384494543E-3,1.767194850E-1,1.108398199E-2,1.770827966E-1
1.348130346E1,6.614370346E-3,2.169524035E-1,7.906897366E-2,2.310064888E-1
1.349133946E1,2.389932454E-2,2.328680494E-1,2.182157493E-1,3.200262792E-1
1.350137546E1,3.594283462E-2,2.230950863E-1,3.743866932E-1,4.372970397E-1
1.351141246E1,3.181674689E-2,1.958178435E-1,4.784548527E-1,5.179536459E-1
1.352144846E1,3.447898418E-2,1.589945644E-1,5.662046027E-1,5.891143556E-1
1.353148546E1,5.319592148E-2,1.393467687E-1,5.957090682E-1,6.140982185E-1
1.354152146E1,4.943703890E-2,1.255648265E-1,5.760489750E-1,5.916442918E-1
1.355155846E1,2.166188747E-2,9.921504356E-2,5.556316674E-1,5.648357390E-1
1.356159446E1,-1.675548881E-2,6.104529686E-2,4.344528008E-1,4.390404432E-1
1.357163146E1,-3.690645576E-2,3.409803808E-2,2.905528235E-1,2.948655727E-1
1.358166746E1,-7.601351112E-2,2.746108286E-3,1.325493622E-1,1.528231933E-1
1.359170446E1,-7.588574946E-2,-2.649442848E-2,-1.285218000E-2,8.139889583E-2
1.360174046E1,-9.244477183E-2,-3.243837900E-2,-1.258396822E-1,1.594801238E-1
1.361177746E1,-7.765219331E-2,-6.105677202E-2,-1.857216024E-1,2.103575674E-1
1.362181346E1,-6.214186907E-2,-8.355199736E-2,-1.913542253E-1,2.178508382E-1
1.363185046E1,-4.591087550E-2,-1.219338518E-1,-1.746727037E-1,2.179133455E-1
1.364188646E1,1.155000508E-2,-1.261749469E-1,-8.483608246E-2,1.524817390E-1
1.365192346E1,6.757305533E-2,-1.001050629E-1,-2.797307968E-3,1.208096286E-1
1.366195946E1,1.222635251E-1,-8.597303700E-2,6.903456688E-2,1.646374930E-1
1.367199646E1,1.439055321E-1,-7.587241050E-2,1.312466025E-1,2.090241505E-1
1.368203246E1,1.854792354E-1,-5.919293549E-2,1.608890623E-1,2.525700709E-1
1.369206946E1,2.267444980E-1,-2.415630966E-2,1.910408145E-1,2.974780454E-1
1.370210546E1,2.445255885E-1,-4.424624629E-3,2.002887708E-1,3.161137966E-1
1.371214146E1,2.489937383E-1,1.761817239E-2,1.869495177E-1,3.118627966E-1
1.372217846E1,2.510510811E-1,2.454789039E-2,1.112210584E-1,2.756798289E-1
1.373221446E1,1.952589959E-1,1.843985237E-2,6.208398163E-2,2.057195285E-1
1.374225146E1,1.328768063E-1,1.617602974E-2,-6.669334173E-3,1.340238397E-1
1.375228679E1,9.498509467E-2,2.632120471E-2,-8.981674075E-2,1.333492443E-1
1.376232379E1,4.353310525E-2,1.554219157E-2,-1.493601072E-1,1.563493927E-1
1.377235979E1,1.878359556E-2,1.301955655E-2,-1.688898075E-1,1.704291624E-1
1.378239679E1,2.540469021E-2,2.193963021E-2,-1.449337649E-1,1.487700974E-1
1.379243279E1,3.776131868E-2,2.523716748E-2,-1.076712137E-1,1.168585559E-1
1.380246979E1,2.847915620E-2,3.143061139E-2,-5.192619860E-2,6.704681775E-2
1.381250579E1,-7.582961619E-3,1.271593988E-2,-1.094423354E-2,1.841121076E-2
1.382254279E1,-5.939338535E-2,-9.012569301E-3,-1.158625782E-2,6.118040535E-2
1.383257879E1,-1.034006998E-1,-2.545837495E-2,-2.234221101E-2,1.088072055E-1
1.384261579E1,-1.445610049E-1,-3.668996260E-2,1.286621332E-2,1.496982864E-1
1.385265179E1,-1.641345593E-1,-5.065921661E-2,4.285892129E-2,1.770406646E-1
1.386268879E1,-1.781401026E-1,-5.697161481E-2,8.773279309E-2,2.065834070E-1
1.387272479E1,-1.952870625E-1,-6.059831377E-2,8.747668505E-2,2.223991071E-1
1.388276179E1,-2.082304591E-1,-7.072671454E-2,9.617909610E-2,2.400262710E-1
1.389279779E1,-2.052887249E-1,-6.353708781E-2,1.079512954E-1,2.404868069E-1
1.390283379E1,-2.155245683E-1,-7.325914364E-2,6.637817681E-2,2.371155921E-1
1.391287079E1,-2.292900833E-1,-5.247528870E-2,1.447244346E-2,2.356630006E-1
1.392290679E1,-1.931358719E-1,-2.756191079E-2,-1.458061695E-2,1.956366998E-1
1.393294379E1,-1.638746506E-1,-5.300976075E-3,1.739722073E-2,1.648807592E-1
1.394297979E1,-9.073183000E-2,6.687752903E-3,5.449371099E-2,1.060497787E-1
1.395301679E1,-1.747791231E-2,4.549590591E-2,5.097485662E-2,7.052510816E-2
1.396305279E1,4.493760645E-2,5.791692685E-2,5.809501112E-2,9.353496248E-2
1.397308979E1,7.798519224E-2,5.070822358E-2,6.820894003E-2,1.153493548E-1
1.398312579E1,9.284618318E-2,3.636138562E-2,4.850323856E-2,1.108833993E-1
1.399316279E1,1.188148373E-1,3.250722997E-2,1.420171738E-2,1.239974772E-1
1.400319879E1,1.165373468E-1,6.924528591E-3,7.600795627E-3,1.169900611E-1
1.401323579E1,1.427740958E-1,-1.748529442E-2,-4.101529419E-2,1.495741700E-1
1.402327179E1,1.504734170E-1,4.409970045E-3,-6.466260374E-2,1.638381805E-1
1.403330879E1,1.556110731E-1,1.807984661E-2,-1.116940981E-1,1.923986966E-1
1.404334479E1,1.397110319E-1,3.160617404E-2,-1.477743423E-1,2.058042247E-1
1.405338179E1,1.012155953E-1,1.471203312E-2,-1.319623017E-1,1.669583473E-1
1.406341779E1,3.781072766E-2,2.623097487E-3,-1.066520441E-1,1.131865287E-1
1.407345479E1,5.520941019E-3,-1.312484298E-2,-1.029063177E-1,1.038867293E-1
1.408349079E1,-2.023458213E-2,-2.144287270E-2,-6.533620298E-2,7.168022407E-2
1.409352779E1,-6.362062991E-2,-5.994101364E-2,-3.868927181E-2,9.558958845E-2
1.410356379E1,-8.147744179E-2,-9.287289765E-2,-3.267190218E-2,1.277943732E-1
1.411359979E1,-7.402458072E-2,-1.084147969E-1,-4.287763238E-2,1.381010430E-1
1.412363679E1,-7.231924027E-2,-1.004765072E-1,-3.660590887E-2,1.290952888E-1
1.413367279E1,-5.744509310E-2,-7.990099590E-2,-8.226798534E-2,1.282658539E-1
1.414370979E1,-4.700108886E-2,-3.270647384E-2,-1.350543094E-1,1.466917934E-1
1.415374579E1,-4.020136178E-2,-1.089307040E-2,-1.485666400E-1,1.542947018E-1
1.416378279E1,-3.798438996E-2,1.888833381E-2,-1.872915798E-1,1.920357230E-1
1.417381879E1,-4.186460227E-2,1.615183689E-2,-2.267392355E-1,2.311367727E-1
1.418385579E1,-3.225236446E-2,1.496931061E-2,-3.038569933E-1,3.059303314E-1
1.419389179E1,-2.468080491E-2,9.515320212E-3,-3.923651272E-1,3.932557393E-1
1.420392879E1,-2.870573580E-2,-1.224662773E-2,-4.979325128E-1,4.989095974E-1
1.421396479E1,1.081325591E-2,-3.550926358E-2,-5.415843165E-1,5.428548666E-1
1.422400179E1,-2.810171843E-3,-6.017903186E-2,-5.433782423E-1,5.467077163E-1
1.423403779E1,-2.665014714E-2,-8.056469142E-2,-5.615700996E-1,5.679453113E-1
1.424407479E1,-1.007238445E-1,-1.103352052E-1,-6.033607346E-1,6.215813112E-1
1.425411079E1,-2.375057137E-1,-1.580226841E-1,-6.739658636E-1,7.318538912E-1
1.426414779E1,-3.589500439E-1,-1.767876416E-1,-7.627014542E-1,8.612853839E-1
1.427418379E1,-4.559503815E-1,-1.829166931E-1,-8.412523645E-1,9.741944404E-1
1.428422079E1,-4.548031577E-1,-1.586114256E-1,-8.004727131E-1,9.342162817E-1
1.429425679E1,-4.650790545E-1,-1.592897757E-1,-6.661194849E-1,8.278809865E-1
1.430429279E1,-4.485019058E-1,-2.552300861E-1,-4.799324441E-1,7.047208719E-1
1.431432979E1,-4.198064026E-1,-3.969764607E-1,-2.040181249E-1,6.127406640E-1
1.432436579E1,-3.073980671E-1,-4.122452219E-1,-3.095223606E-2,5.151676771E-1
1.433440279E1,-3.422670606E-1,-2.960972996E-1,-3.344022632E-2,4.538045839E-1
1.434443879E1,-3.181557745E-1,-2.233593987E-1,-2.781274903E-1,4.779826552E-1
1.435447579E1,-2.274485028E-1,-8.527082294E-2,-5.184924924E-1,5.725717417E-1
1.436451179E1,-2.142393503E-1,8.642447859E-2,-7.028932089E-1,7.398827966E-1
1.437454879E1,-1.007495722E-1,1.697306371E-1,-8.055972129E-1,8.294250026E-1
1.438458479E1,-2.635340095E-2,2.426534562E-1,-8.800252515E-1,9.132467601E-1
1.439462179E1,-1.274108291E-3,2.805798125E-1,-9.086508805E-1,9.509853191E-1
1.440465779E1,-1.163595915E-3,2.760622537E-1,-8.363711089E-1,8.807544230E-1
1.441469479E1,-2.766434669E-2,2.715601900E-1,-7.696701658E-1,8.166409352E-1
1.442473079E1,-2.923373938E-2,2.442988627E-1,-7.166493684E-1,7.577089567E-1
1.443476779E1,-2.446679682E-2,1.743000899E-1,-5.435963434E-1,5.713808975E-1
1.444480379E1,2.300850123E-2,1.118448101E-1,-4.313081682E-1,4.461674446E-1
1.445484079E1,1.452939534E-1,1.594263813E-1,-3.178739387E-1,3.841496386E-1
1.446487679E1,2.542153019E-1,1.917769790E-1,-1.235902584E-1,3.415821736E-1
1.447491379E1,3.779178268E-1,1.539775072E-1,1.004306066E-1,4.202585671E-1
1.448494979E1,4.927360922E-1,1.154861636E-1,2.697987163E-1,5.735130843E-1
1.449498679E1,6.141845155E-1,7.689994901E-2,5.006847972E-1,7.961290645E-1
1.450502279E1,7.394190109E-1,2.750471771E-2,7.015237910E-1,1.019623760E0
1.451505879E1,8.534569654E-1,-2.937378019E-2,8.435345328E-1,1.200334170E0
1.452509579E1,9.046171787E-1,-8.237425849E-2,9.567682028E-1,1.319288881E0
1.453513179E1,8.893477598E-1,-1.249640617E-1,9.975396681E-1,1.342252154E0
1.454516879E1,7.882675275E-1,-1.398146738E-1,9.046794516E-1,1.208039216E0
1.455520479E1,6.265078148E-1,-9.586246938E-2,6.992527324E-1,9.437457490E-1
1.456524179E1,4.686578429E-1,1.794145033E-2,5.354131651E-1,7.117789872E-1
1.457527779E1,3.861223474E-1,1.142313512E-1,4.535661793E-1,6.065159089E-1
1.458531479E1,3.718586496E-1,2.070252018E-1,4.554957604E-1,6.233896672E-1
1.459535079E1,4.037642741E-1,2.460563895E-1,5.695421934E-1,7.402348586E-1
1.460538779E1,4.855530801E-1,2.368825467E-1,8.189060605E-1,9.810618076E-1
1.461542379E1,5.500744736E-1,2.198561856E-1,1.056276703E0,1.211048778E0
1.462546079E1,5.617162800E-1,1.157856873E-1,1.163841498E0,1.297481613E0
1.463549679E1,4.956181848E-1,5.759595126E-2,1.205739722E0,1.304899596E0
1.464553379E1,4.515772489E-1,1.943292886E-2,1.137771687E0,1.224264703E0
1.465556979E1,3.620780119E-1,-1.542612433E-2,9.824158448E-1,1.047129096E0
1.466560679E1,2.642546788E-1,1.288229316E-2,7.950043970E-1,8.378713983E-1
1.467564279E1,1.896570709E-1,9.063768983E-3,5.146707523E-1,5.485781072E-1
1.468567979E1,1.052902275E-1,4.046536356E-2,2.316099662E-1,2.576172628E-1
1.469571579E1,2.805494070E-2,3.500494123E-2,3.093060136E-2,5.448970277E-2
1.470575279E1,-7.259113580E-2,1.447770596E-2,-8.000452816E-2,1.089945021E-1
1.471578879E1,-1.785540855E-1,-4.370530576E-2,-1.064848137E-1,2.124399462E-1
1.472582479E1,-2.810364801E-1,-1.097639322E-1,-1.081156021E-1,3.204974374E-1
1.473586179E1,-4.130823970E-1,-1.501117668E-1,-1.279616368E-1,4.577606249E-1
1.474589779E1,-4.600861171E-1,-1.545366472E-1,-1.211923152E-1,5.002483261E-1
1.475593483E1,-4.771325049E-1,-1.248015091E-1,-9.676206350E-2,5.025870480E-1
1.476597083E1,-4.527174559E-1,-8.375230104E-2,-7.367901027E-2,4.662575891E-1
1.477600783E1,-3.992899847E-1,-8.732348800E-2,-1.789364934E-2,4.091186455E-1
1.478604383E1,-3.554113090E-1,-8.836078405E-2,1.179833633E-1,3.847660338E-1
1.479608083E1,-3.573905915E-1,-1.312080109E-1,2.497503680E-1,4.553227683E-1
1.480611683E1,-3.878709573E-1,-1.990023834E-1,3.300928652E-1,5.468154421E-1
1.481615383E1,-4.116349187E-1,-2.633936763E-1,3.625846732E-1,6.085122680E-1
1.482618983E1,-4.273893642E-1,-2.892474326E-1,3.624677289E-1,6.306414198E-1
1.483622683E1,-3.937020931E-1,-2.897540939E-1,3.469310921E-1,5.994330285E-1
1.484626283E1,-3.312298563E-1,-2.388692844E-1,3.546903473E-1,5.409038687E-1
1.485629983E1,-2.801801553E-1,-1.304678996E-1,2.327443260E-1,3.869014261E-1
1.486633583E1,-2.232022548E-1,-7.574190795E-3,6.238160491E-2,2.318794504E-1
1.487637283E1,-1.660530308E-1,6.969281718E-2,-5.837860107E-3,1.801798502E-1
1.488640883E1,-1.059024310E-1,9.891500831E-2,-6.151329339E-2,1.574274087E-1
1.489644583E1,-5.212500393E-2,1.070952630E-1,-1.216057134E-1,1.702185681E-1
1.490648183E1,-4.301474959E-2,1.083339956E-1,-1.981972218E-1,2.299318638E-1
1.491651883E1,-4.444585562E-2,8.543790713E-2,-2.320046532E-1,2.511995804E-1
1.492655483E1,-4.497268975E-2,5.202443182E-2,-2.860235703E-1,2.941743821E-1
1.493659083E1,-8.159350902E-2,2.285691217E-2,-3.265231401E-1,3.373385542E-1
1.494662783E1,-9.652963668E-2,5.904226005E-3,-3.252081013E-1,3.392832736E-1
1.495666383E1,-1.089616942E-1,-7.520981133E-4,-2.877941072E-1,3.077314813E-1
1.496670083E1,-1.306800073E-1,-4.095843002E-2,-2.269555825E-1,2.650729970E-1
1.497673683E1,-1.197825515E-1,-7.837183937E-2,-1.361699581E-1,1.975658431E-1
1.498677383E1,-1.105451202E-1,-1.006156710E-1,-1.106170410E-1,1.859566256E-1
1.499680983E1,-1.115993732E-1,-1.251501493E-1,-4.907801986E-2,1.747158608E-1
1.500684683E1,-8.823828489E-2,-1.387953579E-1,-3.276311874E-2,1.677008296E-1
1.501688283E1,-9.526663810E-2,-1.383826907E-1,-7.690842748E-3,1.681804105E-1
1.502691983E1,-7.781123757E-2,-1.521457207E-1,6.998883247E-2,1.846654968E-1
1.503695583E1,-4.464787692E-2,-1.322377056E-1,9.460210204E-2,1.686113917E-1
1.504699283E1,-4.872601748E-2,-8.039936140E-2,2.455655158E-2,9.716638471E-2
1.505702883E1,-3.533326238E-2,-4.849505246E-2,-4.979839683E-2,7.797493103E-2
1.506706583E1,-3.330866396E-2,-1.381521642E-2,-5.776756704E-2,6.809859838E-2
1.507710183E1,-2.653232574E-2,-2.167124301E-3,-5.323772907E-2,5.952240363E-2
1.508713883E1,-5.875282288E-2,-4.764749855E-3,-9.423489690E-2,1.111522057E-1
1.509717483E1,-1.121642143E-1,-1.606551737E-2,-1.357290781E-1,1.768086379E-1
1.510721183E1,-1.514054632E-1,-5.923229456E-2,-9.114347398E-2,1.863845805E-1
1.511724783E1,-1.923514679E-1,-9.245208085E-2,-1.221974516E-1,2.459241583E-1
1.512728483E1,-2.091677678E-1,-7.423654228E-2,-2.734152192E-1,3.521620385E-1
1.513732083E1,-1.820483816E-1,-2.383208156E-2,-3.571251279E-1,4.015568930E-1
1.514735683E1,-1.578219053E-1,7.063436508E-4,-3.322914183E-1,3.678666054E-1
1.515739383E1,-9.977630317E-2,-2.411362499E-2,-2.925654352E-1,3.100504982E-1
1.516742983E1,-6.601184875E-2,-5.745210975E-2,-1.939153057E-1,2.127473969E-1
1.517746683E1,-5.218639970E-4,-6.311806172E-2,-7.468356192E-2,9.778443884E-2
1.518750283E1,5.266616374E-2,-9.035790056E-2,6.530638218E-2,1.233012512E-1
1.519753983E1,7.786064655E-2,-1.026005083E-1,1.466779894E-1,1.952013759E-1
1.520757583E1,1.012044856E-1,-1.177889434E-1,1.788183796E-1,2.368387552E-1
1.521761283E1,1.110567516E-1,-1.204286689E-1,1.782529539E-1,2.420966376E-1
1.522764883E1,1.651525596E-1,-5.119646609E-2,1.559499192E-1,2.328450630E-1
1.523768583E1,2.303592467E-1,2.424898803E-2,1.523193830E-1,2.772266048E-1
1.524772183E1,2.289658552E-1,4.407777339E-2,1.942298859E-1,3.034690455E-1
1.525775883E1,2.160350302E-1,5.625810832E-2,2.278829509E-1,3.190090098E-1
1.526779483E1,1.978595451E-1,6.508214146E-2,2.002624583E-1,2.889448683E-1
1.527783183E1,1.747346842E-1,7.061068386E-2,1.837259477E-1,2.631982189E-1
1.528786783E1,1.518548217E-1,7.109044790E-2,1.580900002E-1,2.304477963E-1
1.529790483E1,1.090102261E-1,-2.764563560E-3,1.214548552E-1,1.632242447E-1
1.530794083E1,4.262123197E-2,-6.816303939E-2,9.421618581E-2,1.238525697E-1
1.531797783E1,7.464847863E-3,-8.180751711E-2,6.804521799E-2,1.066693278E-1
1.532801383E1,8.935422599E-3,-6.804024786E-2,4.105154693E-2,7.996590906E-2
1.533805083E1,2.402503967E-2,-5.659052253E-2,-1.460517526E-2,6.319019636E-2
1.534808683E1,-2.640017867E-3,-6.924565136E-2,-4.048144341E-2,8.025382974E-2
1.535812383E1,-3.099901378E-2,-9.031053811E-2,-7.379536986E-2,1.206759660E-1
1.536815983E1,-5.575787902E-2,-1.022999614E-1,-1.386877692E-1,1.811312245E-1
1.537819583E1,-6.343059540E-2,-7.541300207E-2,-1.837692171E-1,2.085226282E-1
1.538823283E1,-8.446653843E-2,-5.656508714E-2,-2.384564710E-1,2.592213219E-1
1.539826883E1,-1.267591569E-1,-4.177133918E-2,-3.286427557E-1,3.547094438E-1
1.540830583E1,-1.591655955E-1,-1.383421987E-2,-4.006553096E-1,4.313348461E-1
1.541834183E1,-1.618573612E-1,5.440541804E-3,-3.684254569E-1,4.024484093E-1
1.542837883E1,-1.422750360E-1,-2.028486818E-2,-3.182177550E-1,3.491650059E-1
1.543841483E1,-1.078021914E-1,-2.568272531E-2,-2.662868786E-1,2.884261024E-1
1.544845183E1,-7.756097674E-2,-2.600198328E-2,-2.312573791E-1,2.452993755E-1
1.545848783E1,-2.889693975E-2,-2.041379929E-2,-2.307416546E-1,2.334383591E-1
1.546852483E1,-5.882006586E-3,-2.628440380E-2,-2.084251714E-1,2.101583211E-1
1.547856083E1,7.293232083E-3,-6.128612906E-2,-6.885037959E-2,9.246380707E-2
1.548859783E1,1.596757650E-2,-8.399817646E-2,1.429001033E-2,8.668830107E-2
1.549863383E1,2.976174295E-2,-8.503196418E-2,4.418331563E-2,1.003412261E-1
1.550867083E1,-2.584176958E-3,-6.469768703E-2,4.070480704E-2,7.648104336E-2
1.551870683E1,-1.245398462E-2,2.960152924E-3,4.338634014E-4,1.280829714E-2
1.552874383E1,-2.013196349E-3,6.838698775E-2,4.468559146E-2,8.171679837E-2
1.553877983E1,1.200433373E-3,1.332112670E-1,1.278528786E-1,1.846430103E-1
1.554881683E1,8.585759103E-3,1.540396339E-1,2.330349326E-1,2.794766607E-1
1.555885283E1,5.312107712E-2,1.721677566E-1,3.587828135E-1,4.014831161E-1
1.556888983E1,9.337214023E-2,1.884066439E-1,4.117504013E-1,4.623351738E-1
1.557892583E1,1.166463974E-1,1.783710676E-1,4.033491218E-1,4.561941844E-1
1.558896183E1,1.355030832E-1,1.771115774E-1,3.438537025E-1,4.098352903E-1
1.559899883E1,1.323198590E-1,1.652487463E-1,3.315868288E-1,3.934024889E-1
1.560903483E1,1.017172864E-1,1.119227242E-1,2.863486755E-1,3.238343195E-1
1.561907183E1,8.615404487E-2,8.219021738E-2,2.284606558E-1,2.576276820E-1
1.562910783E1,9.203663617E-2,8.371546358E-2,1.713011992E-1,2.117147186E-1
1.563914483E1,8.138008565E-2,5.507346243E-2,8.149556816E-2,1.276610051E-1
1.564918083E1,6.700061291E-2,4.406081647E-2,8.010743916E-2,1.133474282E-1
1.565921783E1,4.149535060E-2,2.855663180E-2,-2.578622103E-4,5.037272907E-2
1.566925383E1,2.433757335E-2,-1.370294988E-3,-6.733653545E-2,7.161287728E-2
1.567929083E1,-1.008381575E-2,-3.863021493E-2,-4.814129591E-2,6.254247531E-2
1.568932683E1,-4.123631895E-2,-3.710964650E-2,-6.034385026E-2,8.196914131E-2
1.569936383E1,-2.129877537E-2,-3.587529927E-2,-1.575619966E-1,1.629922013E-1
1.570939983E1,-2.816574544E-2,-2.473927706E-2,-2.057073855E-1,2.090953599E-1
1.571943683E1,-3.415212482E-2,-1.719198346E-2,-2.127866095E-1,2.161945261E-1
1.572947283E1,-6.576568097E-2,1.004844010E-3,-2.155599439E-1,2.253713024E-1
1.573950983E1,-6.851767302E-2,-1.331674129E-2,-1.664871866E-1,1.805269797E-1
1.574954604E1,-8.364851296E-2,-4.166813582E-2,-8.285972357E-2,1.248961210E-1
1.575958304E1,-1.030212155E-1,-4.223063797E-2,-6.497016728E-2,1.289105126E-1
1.576961904E1,-1.292988950E-1,-5.975298911E-2,-7.760132253E-2,1.622053921E-1
1.577965604E1,-1.295351225E-1,-6.150189131E-2,-3.937924325E-2,1.487029099E-1
1.578969204E1,-1.106252271E-1,-4.313081682E-2,-1.195170879E-2,1.193358771E-1
1.579972804E1,-9.270058751E-2,-3.610714138E-2,-2.354966104E-2,1.022336105E-1
1.580976504E1,-1.062719750E-1,-1.034723282E-2,-5.139410198E-2,1.184995849E-1
1.581980104E1,-1.259098488E-1,1.434263527E-2,-7.610268116E-2,1.478195498E-1
1.582983804E1,-1.171130052E-1,4.887102842E-2,-1.004048789E-1,1.618177157E-1
1.583987404E1,-8.673204213E-2,6.856357366E-2,-7.409065425E-2,1.330895782E-1
1.584991104E1,-5.929661393E-2,8.247205317E-2,-3.340631247E-2,1.069285261E-1
1.585994704E1,-2.636568010E-2,5.986437857E-2,-3.928744197E-3,6.553112192E-2
1.586998404E1,-2.708927304E-2,4.103956014E-2,3.249648571E-2,5.894146073E-2
1.588002004E1,-1.998110533E-2,-1.875114352E-2,1.094242090E-1,1.128029586E-1
1.589005704E1,-2.521933347E-2,-4.189003766E-2,1.239317358E-1,1.332286199E-1
1.590009304E1,-1.899146408E-2,-1.805824846E-2,8.822629809E-2,9.203616529E-2
1.591013004E1,2.290325135E-2,1.062906861E-2,3.787650883E-2,4.552104945E-2
1.592016604E1,6.872817278E-2,8.166630685E-2,-1.052264929E-2,1.072551796E-1
1.593020304E1,1.092797828E-1,1.513861674E-1,-2.222058892E-2,1.880255227E-1
