Time (s),Linear Acceleration x (m/s^2),Linear Acceleration y (m/s^2),Linear Acceleration z (m/s^2),Absolute acceleration (m/s^2)
0.02740012528,0.2009822506,-0.1418008268,-0.1502167243,0.2882124282
0.03738712519,0.1048016927,-0.06681817979,0.1522492164,0.1965397869
0.04737312486,0.06104507759,0.03953857988,0.3764922756,0.3834530406
0.05736012524,-0.03814007208,0.04559132516,0.6254456681,0.6282638918
0.06734712515,-0.05517768905,-0.03016081542,0.6640063012,0.6669772261
0.07733412506,0.0673257181,-0.0369292599,0.5135556883,0.5192648337
0.08732112497,0.07236192495,-0.01071677685,0.2680808043,0.2778820166
0.09730712511,-0.0490582855,0.06194569498,0.009041549563,0.07953448386
0.107294125,-0.005501645207,0.0756319803,-0.1880458707,0.2027602378
0.1172811249,-0.02349265069,0.12167588,-0.315630362,0.3390861982
0.1272681248,-0.06693760917,0.1742195445,-0.3719086432,0.4161119226
0.1372551252,-0.1215182975,0.1501649764,-0.2663465202,0.3290238374
0.1472411249,-0.1955253366,0.08475802213,-0.05385636449,0.2198057951
0.1572281253,-0.1933355543,0.05830375671,0.09853201568,0.224692062
0.1672151252,-0.04349042058,0.02348534167,0.141802581,0.150169737
0.1772021251,0.01353601187,-0.01259519488,0.12068887,0.1220969528
0.187189125,-0.02335962653,0.01151229054,-0.03405009091,0.04286739642
0.1971751251,-0.001634589136,0.06268244416,-0.1638875145,0.1754732974
0.207162125,0.00020172894,0.1040830699,-0.2295611018,0.2520548067
0.2171491249,-0.004719287753,0.1017699113,-0.1511008233,0.1822384299
0.2271361249,0.00299596712,0.0958101368,-0.07057355404,0.1190343844
0.2371231252,0.02656887084,0.07963264525,-0.003945116401,0.08404062726
0.2471091249,0.005624582916,0.07634007812,0.01288667858,0.07762415825
0.2570961253,-0.0094214724,0.06341773152,-0.02273222029,0.06802445629
0.2670831252,-0.002437704206,0.05706239283,-0.06404981554,0.08581630351
0.2770701251,-0.0340389812,0.02485709846,-0.02865661919,0.05096792529
0.2870561252,-0.03573788971,-0.007440581918,0.02115288734,0.04219008963
0.2970431251,0.02531347364,0.007308727205,0.05080236375,0.05722822384
0.3070301251,0.08584063411,0.008008931279,0.06637057543,0.1088017037
0.317017125,0.07904675424,0.002326022387,0.1047932142,0.1312837289
0.3270041249,0.07461076409,-0.01173828542,0.08911682904,0.1168176471
0.336990125,0.0379028213,0.02194518507,0.05768102825,0.07242455405
0.3469771249,-0.001284633279,0.03899566591,-0.03986514688,0.05578119914
0.3569641248,-0.03699504107,0.03013596475,-0.1419394058,0.1497451313
0.3669511252,-0.07891095266,0.01054662287,-0.2342435521,0.2474029333
0.3769381251,-0.08938404679,-0.003874365091,-0.2705313724,0.2849416466
0.3869241253,-0.0497143431,0.01301999509,-0.2260293835,0.2317980121
0.3969111252,0.05382859021,0.05231416136,-0.2588772869,0.269539864
0.4068981251,0.1057675065,0.1033252707,-0.2263562429,0.2703701642
0.416885125,0.04998492301,0.07501568377,-0.1916553569,0.2117961783
0.4268721249,-0.08646745563,0.0588376075,-0.1826991767,0.2105171587
0.436858125,-0.1427448598,0.003524701595,-0.1446285403,0.2032386114
0.4468451249,-0.07929087549,-0.06747277558,-0.1214110011,0.159938268
0.4568321249,-0.05716822743,-0.1547079706,-0.06034969747,0.175627015
0.4668191252,-0.03527362078,-0.2592056081,0.02386716485,0.2626812082
0.4768061251,0.03124927461,-0.3735049331,0.09760757089,0.3873108443
0.4867921253,0.0580451636,-0.4924431467,0.11891424,0.5099118455
0.4967791252,0.1066157913,-0.511738666,0.06968185365,0.5273508794
0.5067661251,0.06795692503,-0.4803306395,-0.02397183001,0.485705997
0.516753125,-0.03814474985,-0.4103494084,-0.1867571443,0.4524598213
0.5267401249,-0.1324651623,-0.3726535785,-0.2978548265,0.4951113071
0.5367261251,-0.230230608,-0.3735394317,-0.3218757731,0.5441891704
0.546713125,-0.1570313618,-0.4078503084,-0.3667169005,0.5705103047
0.5567001249,-0.1579525906,-0.4760978401,-0.4715153772,0.6884365803
0.5666871252,-0.1001654354,-0.4353874782,-0.5307886022,0.693780881
0.5766741252,0.06187260479,-0.4317513871,-0.6221770746,0.7598301071
0.5866601253,0.2191460413,-0.4825873724,-0.6261789089,0.8203752711
0.5966471252,0.2790004796,-0.4647786538,-0.6013194716,0.8095959311
0.6066341251,0.2348981479,-0.3760294685,-0.4867643309,0.6584184193
0.616621125,0.06359066293,-0.3108157647,-0.3103251833,0.4437926671
0.6266081249,-0.1610239868,-0.3308129498,0.01617983043,0.3682766881
0.6365941251,-0.2993650161,-0.2463089892,0.2856014013,0.4815139577
0.646581125,-0.1787808113,-0.1710002138,0.344054262,0.4237652497
0.6565681249,-0.05955067545,-0.06792608097,0.2613261008,0.2764987638
0.6665551253,0.1285003115,0.1265483648,0.1086938918,0.210573457
0.6765421252,0.2229151565,0.3083770372,0.02621365249,0.3814114834
0.6865281248,-0.107613034,0.3148952208,-0.1149638611,0.3520742174
0.6965151252,-0.351609157,0.3378268312,-0.3618859309,0.6072210423
0.7065021251,-0.268684237,0.4439090641,-0.5015069157,0.7216340228
0.716489125,-0.02593371704,0.5034910221,-0.3974943048,0.6420105057
0.726476125,0.2136531669,0.5583665563,-0.03704795837,0.5989936879
0.7364621251,0.3071744111,0.6310667427,0.4785881692,0.8494986688
0.746449125,0.2946248245,0.8629826644,0.9714043683,1.3323548
0.7564361249,0.2415685053,1.174722874,1.299769381,1.768538837
0.7664231253,-0.02929381952,1.423265499,1.011652508,1.746420226
0.7764101252,-0.4035132824,1.229436733,0.1490548825,1.302518716
0.7863961249,-1.974886708,0.7729313041,-0.0995383215,2.123089303
0.7963831252,-0.7750487271,0.3535841272,0.4314473319,0.9549183549
0.8063701252,0.9112686789,0.5791330889,-0.2336307639,1.104712213
0.8163571251,0.8932645172,1.107230291,-0.4681140518,1.497668582
0.826344125,1.116417217,1.122731698,0.1561972564,1.59100957
0.8363301251,0.3201678014,0.6530987589,0.1593202543,0.7445994583
0.846317125,-0.1155363035,0.3482792408,0.1836990505,0.4103564404
0.8563041249,-0.0738994503,0.3004753292,0.2128088289,0.375545137
0.8662911248,0.3281046657,0.3982814131,0.07197279274,0.5210190386
0.8762781252,1.233745546,0.4771667842,-0.09189484119,1.325994296
0.8862641249,1.861402631,0.3396348634,-0.679710753,2.010516924
0.8962511253,1.926697026,0.1252456782,-1.394554501,2.381728399
0.9062381252,1.659032105,-0.09722808659,-1.447705107,2.204016992
0.9162251251,1.271275022,-0.3227608223,-0.66530029,1.470693444
0.926212125,1.026714935,-0.6897333191,1.956269612,2.314490528
0.9361981666,-0.7521101001,-0.8208682398,3.071030166,3.266606887
0.9461851669,-1.216284737,-1.244559533,1.40181265,2.234581772
0.9561721669,-0.2510201274,-1.082791341,1.571667833,1.924990382
0.9661591668,-0.4439469979,-0.6647695821,0.2286483514,0.8314370709
0.9761461667,-0.4435894772,-0.3941268933,-0.5647743738,0.8191933383
0.9861321668,0.3394478256,-0.3945142713,-0.4147155243,0.665473743
0.9961191667,1.599929911,-0.2979572989,-0.4177484751,1.680198816
1.006106167,1.362233432,-0.2694269796,-0.1115017247,1.39309133
1.016093167,1.022495731,-0.1170736096,0.2584773374,1.061138202
1.026080167,1.239245291,-0.01740124069,-0.2299663138,1.260522193
1.036066167,0.7018766704,0.187002435,-0.1021701533,0.7335117664
1.046053167,-0.5913581185,0.8628168958,-0.04229115665,1.046874377
1.056040167,-2.36929149,1.375510266,-0.4367905176,2.774230815
1.066027167,-0.6917374523,0.9782438564,-0.6502337694,1.363182196
1.076014167,0.1521145843,0.8416281943,-1.160394564,1.441524335
1.086000167,0.5932375232,0.3166397376,-0.6323009437,0.9230362755
1.095987167,0.9628162703,-0.04716316637,-0.272848624,1.001841258
1.105974167,1.400012585,-0.3809348073,0.2886331826,1.479342989
1.115961167,1.59611738,-0.5122687892,0.3785908413,1.71852874
1.125948167,1.360580424,-0.3592801923,0.168224979,1.417237098
1.135934167,0.9059816265,-0.1057132005,0.01911922574,0.9123286322
1.145921167,0.591619087,0.1972153281,-0.326674583,0.7040051938
1.155908167,0.5802009366,0.5361196184,-0.359873904,0.8680821383
1.165895167,0.2558745955,0.5295728199,-0.2145249867,0.626051236
1.175882167,0.1652203873,0.5172699858,-0.04394591868,0.5447910227
1.185868167,0.2746375796,0.4362774975,0.1717040724,0.5433655707
1.195855167,0.5695860475,0.139724846,-0.02733280957,0.5871101946
1.205842167,0.8061570838,-0.2176051538,-0.3587027067,0.9087952897
1.215829167,1.194811422,-0.6039068645,-0.4615920675,1.41610207
1.225816167,1.470205923,-0.6393565596,-0.5437659127,1.69291572
1.235802167,1.705002622,-0.4039881494,-0.9074282277,1.973237531
1.245789167,1.819934762,0.0738062603,-0.9810119283,2.06881471
1.255776167,1.895553586,0.5374044344,-1.23299067,2.3242618
1.265763167,2.062825469,0.6800485028,-1.140882406,2.453431789
1.275750167,2.159219158,0.7421916874,-1.099750752,2.534270623
1.285736167,2.386108959,0.7651498295,-1.349939076,2.84627928
1.295723167,2.011043258,0.6772647896,-1.44685726,2.568341588
1.305710167,1.395230878,0.09886698805,-1.344058532,1.939829173
1.315697167,0.6613313462,-0.6885288658,-1.145321027,1.491037023
1.325684167,0.8530973616,-0.6297514115,-0.8166344172,1.338377271
1.335670167,0.772876925,0.07958542898,-0.1066666621,0.7842514638
1.345657167,0.2885124376,0.3703579617,0.0137982595,0.4696752478
1.355644167,0.2325266634,0.1870236312,0.2613003731,0.3966413654
1.365631167,0.7982032625,0.07045894861,0.4495245838,0.9187846664
1.375618167,1.364827549,-0.05901638612,0.6014481103,1.492640949
1.385604167,1.752766188,-0.2029675265,0.7018383712,1.898937131
1.395591167,2.056422037,-0.6879449482,0.9439294714,2.364982599
1.405578167,1.953119424,-1.284272213,1.276831339,2.663518138
1.415565167,1.925617045,-1.436986137,1.549285276,2.858883529
1.425552167,1.957571202,-1.075397903,1.961268981,2.972396622
1.435538167,1.877431311,-0.6117720274,2.187447469,2.946852519
1.445525167,1.827187648,-0.36227901,2.138568254,2.83607739
1.455512167,1.879196877,-0.05993600696,1.693299859,2.530264342
1.465499167,1.965140423,0.2345239261,1.455617559,2.456745984
1.475486167,1.993466089,-0.1484721344,2.287766393,3.038062885
1.485472167,1.857586153,-0.8589806838,2.922914931,3.568179624
1.495459167,1.886266746,-0.9908771313,1.988475491,2.914425244
1.505446167,2.073076808,-0.4483463699,1.570895416,2.639389006
1.515433167,2.280191618,0.2007443054,1.958513188,3.012531494
1.525420167,2.051218161,0.4668950535,2.395286749,3.187928096
1.535406167,1.668237815,0.7462520671,2.500375248,3.097060854
1.545393167,1.316773961,1.033238601,2.12769945,2.707135131
1.555380167,1.311334443,1.125511976,1.402072851,2.225350199
1.565367167,1.862190105,0.7331068685,1.207138376,2.337173662
1.575354167,2.383917131,-0.3724450522,3.131325485,3.953096949
1.585340167,2.555566531,-0.9939005803,5.315552307,5.981124893
1.595327167,2.520561298,-0.8404991701,5.894555295,6.465713436
1.605314167,2.120330496,-0.9407808919,5.218699027,5.711014764
1.615301167,1.092857762,-1.567300986,4.103490576,4.526522437
1.625288167,-0.1340474188,-2.043931361,3.381048955,3.953114741
1.635274167,-1.242119343,-2.22265677,2.933828174,3.884637864
1.645261167,-1.582785144,-2.30532909,2.114201152,3.505652227
1.655248167,-1.456436462,-2.436777276,1.166789079,3.069281254
1.665235167,-1.471325519,-2.320015396,-0.3182569313,2.765602591
1.675222167,-2.194802974,-1.861121087,-1.815628873,3.402563739
1.685208167,-2.720909418,-1.693207473,-2.372531725,3.987380893
1.695195167,-2.454298019,-1.63368384,-2.536923269,3.889534847
1.705182167,-2.090246572,-1.349537226,-2.937777384,3.849794464
1.715169167,-1.644185294,-1.200826453,-3.272034636,3.853769597
1.725156167,-1.285734602,-1.142828944,-3.190554855,3.624749887
1.735142167,-0.7066599852,-0.8907247791,-3.116256625,3.317199771
1.745129167,-0.3913462499,-0.6297106272,-2.60402767,2.707516845
1.755116167,-0.5250834739,-0.3736227545,-1.762915639,1.877013097
1.765103167,-0.5655798277,0.2150842729,-0.9349487329,1.113674512
1.775090167,-0.5121962106,0.9742773977,-0.8372242177,1.382933764
1.785076167,-0.6117877418,1.264491083,-1.274515842,1.896737349
1.795063167,-1.508060067,0.5820534807,-2.465480234,2.948156068
1.805050167,-2.052068054,0.1109324983,-3.624565022,4.166624643
1.815037167,-1.505943667,0.7059890172,-3.829025196,4.174652174
1.825024167,-1.452678456,1.005752082,-3.804031273,4.194337358
1.835011167,-1.793802386,1.164287933,-3.97304738,4.512028244
1.844997167,-2.165411359,1.434811411,-3.911269793,4.695287162
1.854984167,-2.688326686,1.628703913,-3.659895653,4.824376954
1.864971167,-3.127080406,1.476863709,-3.608275849,4.997940864
1.874958167,-3.554180918,0.9074250117,-4.35140024,5.691248211
1.884945167,-6.673340685,-0.8784716463,-12.46993348,14.17054796
1.894931167,-2.719071053,0.7899877784,-5.583065931,6.260036204
1.904918167,-3.638322351,1.088728458,-4.042695905,5.546720596
1.914905167,-4.041650715,-0.3903647947,-4.843028285,6.319987986
1.924892167,-4.597694611,-1.9428216,-3.807204557,6.27759174
1.934878625,-4.834203082,-3.330958198,-2.619836202,6.428712444
1.944864625,-4.791027242,-4.02015635,-2.522320433,6.743715555
1.954851625,-4.90486376,-4.300470992,-2.348377461,6.933009156
1.964838625,-4.618782887,-3.861954084,-2.172217226,6.400497823
1.974825625,-3.653190651,-2.4020511,-1.914101247,4.772780636
1.984812625,-3.113607836,-1.897472935,-2.169662578,4.242922695
1.994798625,-2.790948829,-2.168444018,-2.811252408,4.516047489
2.004785625,-2.403930688,-2.325390303,-2.997102064,4.490984702
2.014772625,-2.043928145,-2.609422896,-2.510674533,4.158150638
2.024759625,-1.544636155,-2.455249068,-2.095277224,3.578314615
2.034746625,-1.008574533,-2.153585658,-1.805636566,2.985879633
2.044732625,-0.3929498488,-1.958643581,-1.483849086,2.488473904
2.054719625,0.3087209997,-1.837451851,-1.453162313,2.362883549
2.064706625,0.8930546021,-1.891854345,-1.497305868,2.572660927
2.074693625,1.277392087,-1.895783966,-1.032326508,2.508271399
2.084680625,1.758033798,-1.488998728,-0.3208244437,2.326097241
2.094666625,1.864440844,-1.163080775,0.2805336195,2.215309383
2.104653625,1.610866105,-1.183215078,1.123440161,2.292816025
2.114640625,1.63745661,-1.054367295,2.240358338,2.96852826
2.124627625,1.624295112,-0.9892793065,3.33303162,3.837461132
2.134614625,1.606799074,-1.159748739,4.17369517,4.62023287
2.144600625,1.599873047,-1.264855364,4.643801368,5.071917193
2.154587625,1.742633402,-1.407311664,5.011670755,5.489457264
2.164574625,2.004030839,-1.691708246,5.753181315,6.322745577
2.174561625,2.179106416,-1.807231978,7.081749403,7.626648464
2.184548625,2.207027455,-1.71153557,8.159284244,8.624050299
2.194534625,2.188816302,-1.586931404,8.112056867,8.55071545
2.204521625,2.048131124,-1.450927507,7.123709022,7.552963787
2.214508625,1.857017804,-1.361425639,5.706369091,6.153425314
2.224495625,1.628480549,-1.238680011,4.588036473,5.023579973
2.234482625,1.487248657,-0.9389248395,3.833896512,4.218086164
2.244468625,1.389832875,-0.3889354429,3.333823918,3.632807195
2.254455625,1.210393521,0.1424603927,2.833878794,3.084836536
2.264442625,1.141529692,0.5604588363,2.294591264,2.623423948
2.274429625,1.207681582,0.8849813515,1.842276388,2.373956421
2.284416625,1.186460282,0.9911510003,1.597760448,2.223264886
2.294402625,1.098462026,1.033745043,1.36369699,2.033449561
2.304389625,1.452630801,1.250511267,1.029766597,2.175852458
2.314376625,1.812032835,1.286113794,0.7088123453,2.332373603
2.324363625,1.511839122,0.8188353091,0.2945856482,1.744399467
2.334350625,1.581800473,1.027243524,0.3967575556,1.927365702
2.344336625,1.552414706,1.298059363,0.8078121382,2.178878147
2.354323625,0.9979659301,1.059981499,1.02332472,1.779519671
2.364310625,0.620204224,1.203431241,1.124518973,1.759955383
2.374297625,0.3193065065,1.490207933,1.012217349,1.829551937
2.384284625,-0.1259920022,1.424985458,0.6993305004,1.59233184
2.394270625,-0.5272829041,1.284609598,0.4350831306,1.455179168
2.404257625,-0.658221066,1.223435735,0.1254631215,1.394916114
2.414244625,-0.4110683236,1.255728153,-0.4621545696,1.399791844
2.424231625,-0.2347899744,1.057958363,-1.104192882,1.547140636
2.434218625,-0.216799846,0.888054648,-1.565510715,1.812861558
2.444204625,-0.3405848166,0.8337860548,-1.7302987,1.950674446
2.454191625,-0.6563631132,0.7661837634,-1.607935188,1.898237515
2.464178625,-0.8448089334,0.8677735806,-1.119451191,1.649213173
2.474165625,-0.7827892712,0.9017111126,-0.3697235388,1.250014987
2.484152625,-0.5774052367,0.9941017976,0.514593569,1.259540286
2.494139625,-0.2979270396,1.092346423,1.047573123,1.542527366
2.504125625,-0.3273432121,0.8238355556,1.409483027,1.665082883
2.514112625,-0.8263250077,-0.100087375,1.266119825,1.515219427
2.524099625,-0.9275865036,-0.896003353,0.3136189198,1.327251128
2.534086625,-0.6454522088,-1.068589478,-1.030669407,1.618879691
2.544073625,-0.3415805975,-1.158831311,-2.187432851,2.498885709
2.554059625,-0.3093805656,-1.217228916,-2.827264423,3.093668807
2.564046625,-0.3391820696,-0.9160040465,-2.899829539,3.059921444
2.574033625,-0.07886563674,-0.1316445056,-2.433157411,2.437992012
2.584020625,0.3150178662,0.5168207735,-1.723471491,1.826661969
2.594007625,0.7728457155,0.9255896795,-1.10246386,1.633840053
2.603993625,0.8799228521,0.8811043552,-0.8016140896,1.480943706
2.613980625,1.09457085,0.9765928951,-1.04646566,1.801918257
2.623967625,1.714484613,1.385456818,-1.843544649,2.873604872
2.633954625,2.14539941,1.348448036,-2.81382109,3.786639653
2.643941625,1.964956966,1.110022848,-3.497109169,4.162088315
2.653927625,1.712454899,0.8358284873,-3.188662112,3.714657064
2.663914625,1.548000204,0.6207985935,-2.374286474,2.901539554
2.673901625,0.7115668955,0.4422965482,-1.722294447,1.915268087
2.683888625,-0.5417658725,0.1063976902,-1.473650957,1.573682901
2.693875625,-1.569575699,-0.05106753498,-1.058523204,1.89384454
2.703861625,-2.314992199,0.09947370976,-0.7226000798,2.427186597
2.713848625,-2.934029026,0.2165618643,-0.984015643,3.102210849
2.723835625,-2.5401866,-0.3968452638,-1.110996702,2.800776285
2.733822625,-2.57332511,-1.774254852,-0.3989941156,3.151059934
2.743809625,-2.118214827,-2.485356089,0.7210739565,3.344215393
2.753795625,-2.708114833,-2.678773505,-0.03258243978,3.809301124
2.763782625,-4.308768483,-3.661233788,0.02596222222,5.654272078
2.773769625,-5.050934224,-3.743525163,0.2984027106,6.294041734
2.783756625,-5.996367014,-3.656206352,0.3326124305,7.030995185
2.793743625,-6.511637106,-3.357094959,0.4256872398,7.338440842
2.803730625,-6.452422938,-2.960760157,0.2813908213,7.104860539
2.813716625,-6.279808454,-2.523113315,-0.03308120728,6.76780536
2.823703625,-5.934874771,-2.056916273,-0.5548458016,6.305671809
2.833690625,-5.58792906,-1.73477299,-1.080335072,5.949917006
2.843677625,-5.251206037,-1.676320714,-1.544220418,5.724494098
2.853664625,-4.445033751,-1.633576983,-1.781626729,5.059752228
2.863650625,-3.407181916,-1.520527792,-1.851709117,4.165299513
2.873637625,-2.518310997,-1.422517056,-1.690704864,3.350213126
2.883624625,-2.027730773,-1.203770964,-1.291178067,2.688474925
2.893611625,-1.913918813,-1.066834436,-0.7904377216,2.329380332
2.903598625,-1.855693702,-1.072639844,-0.09432494402,2.145472569
2.913584625,-1.746034435,-0.9564626858,0.984360044,2.220905629
2.923571625,-1.585769855,-0.7563607335,2.085432851,2.726862257
2.933558417,-1.290015056,-0.5822432229,2.940546041,3.263427191
2.943545417,-1.033744458,-0.3755002955,3.626344914,3.789459792
2.953532417,-0.8315626511,0.1560928836,4.067687489,4.154749444
2.963518417,-0.6735214752,0.4989879352,4.329290748,4.409691431
2.973505417,-0.4706342018,0.6480913496,4.639711826,4.708337793
2.983492417,-0.076537714,0.5543423563,5.155142716,5.185426684
2.993479417,0.4325015849,0.6871358398,5.759178804,5.816128762
3.003466417,0.950408771,1.189689699,6.113235898,6.300023139
3.013452417,1.347899567,1.617668755,6.151479612,6.501875642
3.023439417,1.590774195,1.883256599,6.007635183,6.493758423
3.033426417,1.983327602,2.106179357,5.726444921,6.415742459
3.043413417,2.499294682,2.33992458,5.3151775,6.3224072
3.053400417,2.961338739,2.602120893,4.786953487,6.20124858
3.063386417,3.058634654,2.848665525,4.104924898,5.858374317
3.073373417,2.918230142,3.208315773,3.303000906,5.451529349
3.083360417,2.867799076,3.464087019,2.499979976,5.145295939
3.093347417,2.960827693,3.567440064,1.912703762,5.015133589
3.103334417,3.212469635,3.837819993,1.46283887,5.214280489
3.113320417,3.320893385,4.119248822,1.013810715,5.387425721
3.123307417,3.168066464,4.186255282,0.6133103567,5.285596277
3.133294417,3.1275131,4.166879948,0.07432629704,5.210542303
3.143281417,3.259660174,4.150545459,-0.4543081909,5.29705654
3.153268417,3.570755435,4.011348689,-0.6880909824,5.414303454
3.163255417,4.093335716,3.791190788,-0.3494167435,5.590225124
3.173241417,4.472689619,3.483738049,0.2970736384,5.67711511
3.183228417,4.385459687,3.151712387,0.9475652701,5.483012636
3.193215417,3.74353598,2.87125595,1.421508411,4.927358169
3.203202417,3.092350869,2.880674938,1.68457055,4.549582391
3.213189417,2.277422084,3.004570713,1.968134782,4.252957916
3.223175417,1.563144931,3.344730145,2.249915905,4.323512854
3.233162417,1.358439758,3.763523517,2.423989854,4.678161461
3.243149417,1.033440987,3.512444369,2.609489847,4.496076399
3.253136417,0.3966318405,2.740424792,2.743713559,3.898103251
3.263123417,0.04911076427,2.039103608,2.874697037,3.52480332
3.273109417,-0.2770352304,1.605695412,3.199141492,3.59019673
3.283096417,-0.629853884,1.539563695,3.534084622,3.905985971
3.293083417,-0.7901634872,1.696361753,3.880797029,4.308432094
3.303070417,-0.802761898,1.594850581,4.250869938,4.610625801
3.313057417,-0.3269716215,1.260771961,4.159895157,4.359034766
3.323044417,0.4771064848,0.8644602558,3.765465378,3.892769148
3.333030417,1.249747621,-0.2098552541,3.047516173,3.300494382
3.343017417,2.838386412,-0.9916266713,2.316308407,3.795397939
3.353004417,4.668250331,-1.54961769,1.240446455,5.072729398
3.362991417,4.201869394,-1.818776721,0.5277579904,4.60892435
3.372978417,3.30967024,-1.797945284,0.2309825599,3.773576193
3.382964417,2.956363344,-1.306122089,0.3356681854,3.249417219
3.392951417,2.604962055,-0.741344499,0.6047529566,2.775093713
3.402938417,2.04815919,-0.9903561444,1.215732028,2.579489431
3.412925417,1.978323555,-1.291550389,1.973384997,3.078329878
3.422912417,1.872732781,-1.540240072,2.698106446,3.627567497
3.432898417,1.41798371,-1.818400745,3.518702352,4.20696153
3.442885417,0.5093807763,-1.936217755,4.28261418,4.727493224
3.452872417,-0.5607696158,-2.125308523,4.912472742,5.381801494
3.462859417,-1.5975365,-2.346515269,5.380072823,6.08304532
3.472846417,-2.401561981,-2.199317755,5.393333724,6.300202155
3.482832417,-2.579986258,-1.823993607,4.858220521,5.795307446
3.492819417,-1.770055089,-1.201852639,4.180832866,4.696478281
3.502806417,-0.9634474772,-1.428636606,3.021096406,3.477967379
3.512793417,-0.3483718461,-1.930349782,1.771901932,2.643340629
3.522780417,-0.2224356848,-2.343275766,0.9703030452,2.545958945
3.532766417,-0.369424746,-2.410785671,0.9428249323,2.614819506
3.542753417,0.01965424597,-1.677567048,1.319162841,2.134199637
3.552740417,0.1056691271,-1.476938408,1.080974173,1.83330799
3.562727417,-0.1957109857,-2.03047341,0.6608148909,2.144248441
3.572714417,-0.2031252551,-2.085007028,0.73348818,2.21957633
3.582701417,-0.1184675127,-1.675847528,1.242985316,2.089859322
3.592687417,0.1859449661,-1.230311915,1.845666019,2.225921381
3.602674417,0.4180729955,-1.302686265,1.976205109,2.403573
3.612661417,0.6273886979,-1.441585118,1.663708854,2.289041586
3.622648417,0.6057890832,-1.721345005,0.9970759839,2.079463767
3.632635417,0.7107717472,-1.826258087,0.2718431953,1.978462484
3.642621417,0.3003013015,-2.059843974,-0.5329099721,2.148751057
3.652608417,-0.2292424285,-2.107036559,-0.7802062637,2.258512113
3.662595417,-0.9538293922,-1.644939877,-0.8408012518,2.079077789
3.672582417,-1.393000896,-1.36585549,-1.002928462,2.193599374
3.682569417,-1.337582155,-1.17662088,-1.054531894,2.070169132
3.692555417,-1.024615785,-0.8467162952,-0.7655987495,1.53391898
3.702542417,-1.01822127,-0.5569750652,-0.3856478459,1.222996336
3.712529417,-1.657611963,-0.5764419079,-0.3228142512,1.784424762
3.722516417,-2.143129667,-0.4314970332,-0.5805466533,2.261908238
3.732503417,-2.800492947,-0.2264930677,-1.162522951,3.04064458
3.742489417,-3.032598757,-0.1355846518,-1.601193641,3.432034308
3.752476417,-3.078023436,-0.2549359712,-1.897690159,3.624975664
3.762463417,-2.987047777,-0.3291695899,-1.906493434,3.558865586
3.772450417,-2.708583487,-0.1839633447,-1.329879618,3.023052566
3.782437417,-2.814688232,-0.1112739757,-0.4810539401,2.857667691
3.792424417,-2.622492008,-0.6110667801,0.3798971093,2.719409633
3.802410417,-1.725635546,-1.060593703,1.328414306,2.422263736
3.812397417,-1.301341698,-1.462113231,1.919643238,2.741586306
3.822384417,-1.309419626,-1.764905739,2.160532735,3.081780933
3.832371417,-1.073363437,-1.552087846,1.869574115,2.656387231
3.842358417,-1.034059623,-1.296434714,1.303805714,2.109486101
3.852344417,-0.9019897324,-0.7788839158,0.9301879299,1.51178544
3.862331417,-0.9345142847,-0.3813741159,0.5710601306,1.159686526
3.872318417,-1.636995265,-0.5464053458,-0.2108353937,1.73860975
3.882305417,-1.582746552,-0.3471901238,-0.17507967,1.629809965
3.892292417,-1.448280473,-0.05733838141,-0.1820308399,1.460800891
3.902278417,-1.160184649,-0.3064350307,-0.4547519946,1.283249868
3.912265417,-0.4805329531,-0.4901258951,-0.766271764,1.028740846
3.922252417,0.2054360747,-0.7143677849,-1.35534892,1.545799472
3.93224,1.54252414,-0.5795251447,-0.8316062129,1.845751611
3.942227,2.512585403,-0.1826263788,-0.3803777504,2.547768639
3.952213,2.110731415,-0.2874909291,-0.653094812,2.228086841
3.9622,1.317088834,-0.6621053714,-0.8378791058,1.695626113
3.972187,0.8613615239,-0.42841672,-0.5319323176,1.099289112
3.982174,0.7398136979,0.1680568716,-0.5452306402,0.9342611363
3.992161,0.6192827028,0.4670662308,-0.8781839633,1.171694928
4.002147,0.3868804389,0.6240467218,-1.00027675,1.240832124
4.012134,0.303502652,0.7130515766,-0.7746496546,1.095736509
4.022121,0.216057542,0.7394771907,-0.3015900278,0.8273233478
4.032108,-0.3043885052,0.6739591393,0.01679320335,0.7396994628
4.042095,-0.7410784507,0.6924951053,-0.05984508276,1.016035518
4.052082,-0.7848588932,0.4409815094,-0.1997870797,0.9221621609
4.062068,-0.6031116432,0.05748894721,-0.2869181943,0.6703511643
4.072055,-0.5445038313,-0.2268921402,-0.3304553926,0.67613995
4.082042,-0.5914423549,-0.1874596873,-0.2045180619,0.653278525
4.092029,-0.508390258,-0.1149907583,-0.04530247271,0.5231977092
4.102016,-0.8544799358,0.07694175661,0.04006219804,0.8588719196
4.112002,-1.056191919,0.4147441757,0.09079439521,1.138331113
4.121989,-0.9108237058,0.5073456529,0.2348329514,1.068712286
4.131976,-0.5968831891,0.4379348177,0.3719273543,0.8284844011
4.141963,-0.2150962597,0.2086081892,0.4658383155,0.5538854699
4.15195,-0.03921376705,-0.0329572463,0.7135871816,0.7154233469
4.161936,0.2494685322,-0.07814452887,1.304065331,1.330010339
4.171923,0.8300303882,0.08109854221,1.946176733,2.117340618
4.18191,1.245762743,0.3423489216,2.200330054,2.551583811
4.191897,1.449686728,0.6754338071,2.036857107,2.589708345
4.201884,1.438910894,0.7513730586,1.650859013,2.315245455
4.211871,1.169782854,0.4690934604,1.354637899,1.850266045
4.221857,0.8212496245,0.2809502336,1.174550089,1.460462903
4.231844,0.5792748839,0.2050299856,0.8477182156,1.047006618
4.241831,0.4532662171,0.2723717836,0.4317437857,0.6826707468
4.251818,0.4622165501,0.06230062097,-0.2672849983,0.5375563011
4.261805,0.3328767246,-0.08109591097,-0.8535356104,0.9197317537
4.271791,0.1715614003,0.1531944188,-1.077414388,1.101691249
4.281778,-0.4272402602,0.2187589556,-1.219488865,1.310550576
4.291765,-1.151803835,0.4696819827,-1.184938837,1.717944494
4.301752,-2.145636953,0.6035326427,-0.9374665439,2.418026697
4.311739,-2.679067327,0.424163163,-0.4296270937,2.746251185
4.321725,-2.629157833,0.1019789493,0.0501311034,2.631612385
4.331712,-2.779147686,-0.8847574031,0.02085117102,2.916657726
4.341699,-2.971749122,-2.391148674,-0.2331571394,3.821419511
4.351686,-2.460296093,-3.587762939,-0.4415405032,4.372648829
4.361673,-1.689227858,-4.386581182,-0.3457666191,4.713293942
4.371659,-1.74256265,-4.669697225,0.08027993202,4.984881305
4.381646,-1.394554501,-4.830163241,0.5262365448,5.054916824
4.391633,-1.312134488,-5.280476614,0.9793407941,5.528493337
4.40162,-1.956069052,-5.304639648,1.668642443,5.894894022
4.411607,-2.430507452,-5.127845575,2.228845463,6.096713772
4.421594,-2.850787187,-5.365192244,2.043005747,6.409847727
4.43158,-2.821737635,-5.454007357,1.91779581,6.433221611
4.441567,-2.432647533,-5.202583516,2.135304631,6.127330179
4.451554,-2.032601504,-5.026667694,2.285677768,5.884146483
4.461541,-1.890545154,-5.134676292,2.215111231,5.903031371
4.471528,-1.730112174,-5.480695218,1.928314658,6.062153548
4.481514,-1.272419615,-5.983960977,1.380766182,6.271631039
4.491501,-0.9393779987,-6.363672144,0.593345112,6.459939056
4.501488,-0.8373358995,-6.717877758,-0.1883598661,6.772480521
4.511475,-0.7278584808,-6.919923617,-0.765572437,7.000087284
4.521462,-0.1782956386,-6.920922906,-1.162182058,7.02008763
4.531448,0.5226855308,-7.04851266,-1.377089453,7.200771225
4.541435,1.068861081,-7.058526016,-1.336700395,7.263058686
4.551422,1.653772681,-6.84032547,-1.210493654,7.140750066
4.561409,2.036100478,-6.608780408,-1.05422243,6.99521755
4.571396,2.283650538,-6.363527133,-1.038026959,6.840105067
4.581383,2.516055726,-6.065537236,-1.060836947,6.651815798
4.591369,2.811329007,-5.792412039,-0.9231546065,6.504446359
4.601356,3.126467618,-5.533777996,-0.8536721429,6.412975503
4.611343,3.212670195,-5.453773468,-1.030248992,6.412979636
4.62133,3.678907875,-5.563677149,-1.186923089,6.77478066
4.631317,4.28106993,-5.403815442,-1.278359801,7.011632111
4.641303,4.685982013,-4.980948315,-1.392019733,6.978967866
4.65129,4.838693744,-4.4585224,-1.47942976,6.743892908
4.661277,4.596365831,-3.965035526,-1.564447691,6.268618839
4.671264,4.254511877,-3.445894869,-1.737146375,5.743930735
4.681251,3.965081134,-2.825650299,-1.889782092,5.222781287
4.691237,3.405321332,-2.182039671,-1.988499464,4.506843754
4.701224,2.90475114,-1.614348122,-2.18199494,3.975525244
4.711211,2.77098088,-1.208675316,-2.389941224,3.853706023
4.721198,2.723546512,-0.862875368,-2.426850019,3.748581134
4.731185,2.77279644,-0.7282467359,-2.282600378,3.664561078
4.741172,2.878537488,-0.7517978588,-1.936843992,3.55000602
4.751158,2.964062957,-0.7980025569,-1.464506496,3.401066976
4.761145,3.086282336,-0.8728407776,-0.9841384345,3.354924461
4.771132,3.03815098,-0.9249178344,-0.2829344863,3.188398705
4.781119,2.90997095,-0.8445975566,0.585215655,3.086057894
4.791106,2.815315931,-0.6057684718,1.415624943,3.2088866
4.801092,2.652181537,-0.3350409253,2.295723869,3.523729191
4.811079,2.5827134,-0.09993359327,3.120306991,4.051754058
4.821066,2.722812102,0.2243924555,3.609482129,4.526855306
4.831053,2.873890121,0.633168232,3.657116472,4.694107724
4.84104,2.796788151,1.070592442,3.335791506,4.482822449
4.851026,2.591573685,1.497237748,2.769261798,4.077595609
4.861013,2.620340525,1.94453308,2.322273737,4.005040408
4.871,2.658226974,2.519030204,2.066809469,4.205161733
4.880987,2.617579469,3.05814875,1.795015098,4.407502157
4.890974,2.752545778,3.430782448,1.78768269,4.747903313
4.900961,2.83391797,3.574823343,2.151536794,5.043764821
4.910947,2.81771709,3.425687184,2.711746831,5.198887685
4.920934,2.728736793,3.110115879,3.370642081,5.33667062
4.930921,2.504268324,2.780743391,3.954658472,5.444558501
4.940908,2.249612727,2.356012171,4.24153632,5.348100703
4.950895,2.104450336,1.838162141,4.112971251,4.972331826
4.960881,2.002600025,1.328205414,3.764138644,4.46578954
4.970868,2.039104777,1.015583664,3.24453752,3.964389258
4.980855,2.074060602,0.9052504322,2.627070377,3.467377178
4.990842,2.069206536,0.8610720136,1.938271882,2.96309949
5.000829,2.007667807,0.8258658551,1.279489483,2.519896381
5.010816,1.941336408,0.7458795995,0.731602453,2.204623681
5.020802,1.916614965,0.6192644303,0.3790264589,2.049527363
5.030789,2.11596555,0.4833852249,0.385983476,2.2045305
5.040776,2.296956755,0.3851158954,0.4374483293,2.369743789
5.050763,2.315360281,0.278825794,0.5088685602,2.386961304
5.06075,2.294983612,0.1700371774,0.6754569036,2.398354529
5.070736,2.286067485,0.1182483152,0.8172232318,2.430625644
5.080723,2.195268997,0.008160849251,0.8482737011,2.353474206
5.09071,2.073663283,-0.1310253585,0.8546009731,2.246684197
5.100697,2.003584696,-0.1675625626,0.780518505,2.15676563
5.110684,1.926664282,-0.107206689,0.5741971618,2.013263746
5.120671,1.796621036,-0.04645941742,0.343638525,1.829779512
5.130657,1.589422026,-0.03187690012,0.1314600259,1.595167782
5.140644,1.440285867,-0.0789516639,-0.03146912992,1.442791409
5.150631,1.293649685,-0.1285013348,-0.1029881787,1.30408921
5.160618,1.031439486,-0.0949252338,-0.02723516107,1.036156343
5.170605,0.8251277903,-0.0552794306,0.1024356169,0.8332975107
5.180591,0.7325204659,-0.1167257003,0.2978793848,0.7993392583
5.190578,0.7684790879,-0.2730014556,0.513680234,0.9638243025
5.200565,0.8066391867,-0.3842232449,0.6581468064,1.109707844
5.210552,0.7655224434,-0.4714654566,0.8422914147,1.231973667
5.220539,0.6970331293,-0.4281989112,0.9621394551,1.262902143
5.230525,0.5948322782,-0.3543423649,0.9245348418,1.155053516
5.240512,0.4713712433,-0.3082339997,0.7817288786,0.9634827903
5.250499,0.4709329945,-0.1857224795,0.6503741026,0.8241706122
5.260486,0.4818240184,-0.03044974096,0.6130267668,0.7803098027
5.270473,0.6538561195,0.09254958317,0.652750411,0.9285345171
5.28046,0.8551880336,0.2027288139,0.6846721154,1.114101185
5.290446,0.9945856547,0.2808799209,0.7022646332,1.249507811
5.300433,1.133798504,0.4833049719,0.5892595893,1.366129425
5.31042,1.17475708,0.8419587813,0.2908972245,1.474303219
5.320407,1.074635499,0.9599937462,0.07814745247,1.443099606
5.330394,1.087564277,0.8613610853,0.09512893617,1.390607238
5.34038,1.13776584,1.014881852,0.196229049,1.537205946
5.350367,1.223106245,1.046582312,0.3908974761,1.656539845
5.360354,1.329317701,0.8833822842,0.6229752195,1.713344079
5.370341,1.368065152,0.7307683477,0.6181641304,1.669656112
5.380328,1.340277137,0.5033438185,0.4553887564,1.502357056
5.390314,1.405694324,0.2423245503,0.3025618351,1.458163703
5.400301,1.507803374,0.09763190992,0.1640126449,1.519836554
5.410288,1.283074996,-0.2203575113,0.313723585,1.339127091
5.420275,0.9401705888,-0.5478099932,0.7387074047,1.315182556
5.430262,0.6045331013,-0.6279448412,1.133677467,1.430034822
5.440249,0.2284711808,-0.5553594064,1.25895874,1.394847755
5.450235,-0.0270082891,-0.5218151727,1.120529417,1.23636835
5.460222,-0.1528473866,-0.5514438915,0.7706595147,0.9598795636
5.470209,-0.1603470254,-0.5787129664,0.3358161199,0.6880351244
5.480196,-0.01541881531,-0.5678557833,-0.1682939762,0.5924700777
5.490183,0.1716435537,-0.7496305883,-0.3882539499,0.8614805036
5.500169,0.4206671128,-1.271243155,-0.1949327213,1.353151412
5.510156,0.8313962978,-1.478010056,0.3287684709,1.727374377
5.520143,1.189700809,-1.449157263,1.101124848,2.174378237
5.53013,1.256140966,-1.415641023,1.516073676,2.424955468
5.540117,1.040625169,-1.404091895,1.500704269,2.30358158
5.550104,0.7169969854,-1.337515205,1.318423753,2.010291719
5.56009,0.5032344756,-1.236602495,0.919800936,1.621253969
5.570077,0.3539810801,-1.038514763,0.4046805328,1.169436553
5.580064,0.2730433363,-0.9202991188,-0.1243106353,0.9679650126
5.590051,0.2588986292,-0.894363209,-0.4047775966,1.015262997
5.600038,0.287454384,-0.9957556095,-0.1875757545,1.053253968
5.610024,0.1898658165,-1.096225758,0.189412365,1.128555264
5.620011,0.1669675353,-1.01647076,0.4432867742,1.121425043
5.629998,0.1140689448,-0.9678261647,0.5170102233,1.103176677
5.639985,0.07186257273,-0.8855131558,0.4180390817,0.9818627461
5.649972,0.1654612926,-0.7148322,0.2830654639,0.7864404429
5.659959,0.2240123865,-0.6579560409,0.03051486433,0.6957146384
5.669945,0.2918742943,-0.6710249334,-0.2737812549,0.7812945926
5.679932,0.31099352,-0.7171819767,-0.4956374806,0.9255935768
5.689919,0.2113090181,-0.7912356473,-0.4345621437,0.9271189823
5.699906,0.02547339499,-0.8404931036,-0.2585551053,0.8797319441
5.709893,-0.1058135533,-0.7902525841,-0.03792270184,0.7982066062
5.719879,-0.1690561607,-0.7195028096,0.07161552787,0.7425584572
5.729866,-0.2284466225,-0.6786040943,0.08718783259,0.7213134508
5.739853,-0.2510390943,-0.7095653205,0.1626888353,0.7700462506
5.74984,-0.2015266263,-0.7697491763,0.3002416599,0.8504538964
5.759827,-0.2242734647,-0.7988561773,0.4593239325,0.9483924577
5.769813,-0.4085955361,-0.9288635355,0.6647272629,1.213095262
5.7798,-0.5289034599,-1.188109782,0.9755634928,1.625751473
5.789787,-0.5856632593,-1.242706696,1.315689011,1.902198454
5.799774,-0.7633782694,-1.183109755,1.807164443,2.290925227
5.809761,-0.8326636818,-1.168672467,2.049761912,2.502128702
5.819748,-0.734830116,-1.056242497,2.023790334,2.398197413
5.829734,-0.6300854337,-0.8553868389,1.92356555,2.197452781
5.839721,-0.5275404739,-0.7607634676,1.703249481,1.938586805
5.849708,-0.3291660815,-0.7123887947,1.370234762,1.579047626
5.859695,-0.1333937001,-0.6692924765,1.004132988,1.214096107
5.869682,0.1135131669,-0.666042594,0.6701382762,0.9516213981
5.879668,0.4459367323,-0.6366486409,0.40893906,0.8783007549
5.889655,0.7668339738,-0.607984128,0.1900140435,0.9968873457
5.899642,1.096372523,-0.6530911575,0.130661881,1.282822395
5.909629,1.411946167,-0.830366457,0.1942772484,1.64949813
5.919616,1.543683936,-1.110709896,0.1510002512,1.907731019
5.929603,1.595608672,-1.423183638,-0.2235957724,2.149747374
5.939588875,1.895757362,-1.591907677,-0.4277746958,2.512181764
5.949575875,2.336919842,-1.844205677,-0.2791519225,2.990019185
5.959562875,2.715444025,-2.368787168,-0.05556433618,3.603869628
5.969549875,3.184915216,-2.914953655,0.2094262147,4.322557007
5.979536875,3.935926332,-3.146900128,0.5079271585,5.064828379
5.989522875,4.49968329,-3.128760019,0.7696754283,5.53431922
5.999509875,5.080576099,-3.304608305,1.008559331,6.144093218
6.009496875,5.734035192,-3.791860586,1.551546394,7.047315979
6.019483875,5.836521095,-3.990666211,2.246572759,7.418725258
6.029470875,5.04265749,-3.824354441,2.733760428,6.894021143
6.039457875,3.199504019,-3.752175826,3.164179235,5.858982815
6.049443875,1.436186092,-3.577094986,3.731090181,5.364631672
6.059430875,0.3831575167,-3.462611182,4.083674362,5.367763237
6.069417875,-0.3618707281,-3.50212608,4.415935959,5.64768341
6.079404875,-0.2961006618,-3.953424709,4.733726283,6.17457748
6.089391875,-0.1479047352,-3.200769941,5.537791525,6.397963661
6.099377875,0.3809221262,-2.843317369,6.021845672,6.670245919
6.109364875,-0.3232785201,-3.678683926,4.457756415,5.788680047
6.119351875,-1.673973057,-3.16951979,3.453277271,4.977264852
6.129338875,-1.793639249,-2.451980183,2.766543428,4.108906315
6.139325875,-1.771073674,-3.024515566,2.129348364,4.101038993
6.149312875,-2.624255528,-2.775904235,1.692405235,4.178109247
6.159298875,-2.78192102,-2.039936251,1.766204697,3.875552026
6.169285875,-3.471852121,-1.260319971,1.886545658,4.147435123
6.179272875,-3.804028934,-1.121320546,1.711003473,4.319204647
6.189259875,-3.894242116,-1.291792025,1.09739257,4.247130649
6.199246875,-3.506722577,-1.409129563,0.7116915143,3.845679936
6.209232875,-3.100914116,-1.578372835,0.324746756,3.494622958
6.219219875,-2.80391883,-1.409581261,-0.4167766678,3.165846321
6.229206875,-2.006654484,-0.2420650801,-1.218093719,2.359875003
6.239193875,-0.6918495727,1.57718585,-2.22827916,2.816273966
6.249180875,-1.721427305,-0.6294366851,-3.465502045,3.920358011
6.259167875,-0.9218550628,-0.09823848546,-4.610776294,4.703054921
6.269153875,-0.8639050627,0.3821208054,-4.489240748,4.587551717
6.279140875,-0.7740134776,0.9950771132,-3.349161165,3.578568964
6.289127875,-1.097792519,0.4424190474,-2.939080728,3.168450498
6.299114875,-1.310394942,-0.03961722493,-2.478050578,2.803469118
6.309101875,-1.28027418,0.1261981165,-2.126708931,2.485541957
6.319087875,-1.377655463,0.4673255548,-2.445996727,2.845914218
6.329074875,-1.576809289,0.902627956,-2.148175229,2.813489218
6.339061875,-1.628976978,1.441303575,-1.256842048,2.512085572
6.349048875,-1.152437381,1.286738276,-0.235818792,1.743392615
6.359035875,-1.094417214,0.8989944962,0.03820278347,1.416827299
6.369022875,-0.8456541485,0.4589441559,-0.2391604757,0.9914425905
6.379008875,-1.171470068,0.8295924318,-0.4852282673,1.515259778
6.388995875,-1.710437171,1.159000003,-0.8850509334,2.24770805
6.398982875,-2.452868959,1.445663259,-1.336219754,3.145153672
6.408969875,-2.970918818,1.574880585,-1.825344021,3.826027741
6.418956875,-3.380990483,1.636687994,-2.180030276,4.343083725
6.428943875,-3.142477587,1.831903135,-2.303774316,4.305625457
6.438929875,-2.46006045,1.946983356,-2.254914397,3.863583899
6.448916875,-1.740675754,1.577478211,-2.04572441,3.11502455
6.458903875,-1.074706835,1.547500706,-1.868131022,2.653237029
6.468890875,-0.7962773359,1.646220417,-2.31844498,2.952843779
6.478877875,-1.507466867,2.484206819,-3.103119686,4.251245895
6.488863875,-2.910719393,3.364231778,-3.495425756,5.657591719
6.498850875,-3.60517507,3.596850682,-3.065439059,5.944033877
6.508837875,-3.464434344,3.510192607,-2.246259348,5.419357759
6.518824875,-3.176598721,3.028005476,-1.315580837,4.581522622
6.528811875,-3.064081335,2.247232617,-0.469312731,3.828694726
6.538798875,-3.206313686,1.776812424,0.2087151933,3.671657919
6.548784875,-3.146300496,2.4189937,0.8987673318,4.069216147
6.558771875,-2.980771961,2.821214894,0.4214708126,4.12575964
6.568758875,-3.02848524,3.14587862,-0.5941864532,4.406964112
6.578745875,-3.007755691,3.308025126,-1.957898061,4.880879977
6.588732875,-2.613225925,3.031348622,-3.071577466,5.045058209
6.598718875,-1.406731035,2.886454033,-3.064588289,4.43871721
6.608705875,-0.4382087597,3.068004232,-1.84354348,3.606012957
6.618692875,-2.319807966,2.378348535,-2.665268483,4.259308258
6.628679875,-2.68466896,1.622544456,-2.361341908,3.926325705
6.638666875,-1.076842384,1.973665955,-0.9816481054,2.453279402
6.648653875,-1.185307796,1.847382177,0.2427284467,2.208323477
6.658639875,-0.9991178316,1.502658701,0.9130801463,2.022358763
6.668626875,-1.366892932,1.214450319,0.4889283854,1.892706219
6.678613875,-1.424249878,1.007126471,-0.06808497906,1.745688119
6.688600875,-1.28638949,0.6231880581,-0.3238363445,1.465616339
6.698587875,-1.194805501,0.4243686926,-0.6638115889,1.4311865
6.708573875,-1.20428837,0.1564884478,-1.016838403,1.583906389
6.718560875,-1.334613816,-0.1504307324,-1.084957296,1.726544462
6.728547875,-1.394041847,-0.8330751796,-1.857755138,2.467513136
6.738534875,0.05354098029,-1.457818889,-2.555346676,2.942430829
6.748521875,2.804011509,-0.507128575,-2.547232495,3.822048314
6.758508875,2.73855076,-0.3796119113,-2.446477953,3.691750241
6.768494875,2.411755724,-0.5937490815,-1.180686741,2.750113603
6.778481875,1.543890342,-0.6042945349,-0.1150410444,1.661927711
6.788468875,0.744201814,-0.9927836891,0.2566711324,1.267018494
6.798455875,0.7430593412,-1.162699829,0.07903038204,1.382119343
6.808442875,0.9664153777,-1.059024164,-0.5237415379,1.526366948
6.818429875,0.7963159275,-1.07961031,-0.9340681422,1.634674516
6.828415875,0.03155669197,-1.17631836,-0.7906815505,1.417708723
6.838402875,-1.122502706,-0.991215612,-0.5566344649,1.597611543
6.848389875,-2.049259344,-0.7315088975,-0.2659173346,2.192095152
6.858376875,-2.146111162,-0.6128627524,-0.1562621605,2.237367144
6.868363875,-1.763331083,-0.4622048557,-0.07672657907,1.824515499
6.878349875,-1.18110701,-0.1659053155,-0.1241738105,1.199148647
6.888336875,-0.8377650851,0.2132130908,-0.2624820954,0.9034417581
6.898323875,-0.9272441491,0.1614939202,-0.4477002525,1.042255974
6.908310875,-0.9852853659,-0.05906860907,-0.8187323982,1.282419234
6.918297875,-1.100172336,0.02363503039,-1.339078458,1.733225
6.928284875,-1.211957358,0.06937926024,-1.888799175,2.245265339
6.938270917,-1.130384899,-0.1995132838,-2.102097416,2.395076015
6.948257917,-0.2069200981,-0.4900400873,-1.916814939,1.989254817
6.958244917,1.29980271,-0.8193109801,-1.694318444,2.287241255
6.968231917,2.811387771,-0.78956042,-1.791813748,3.42606237
6.978218917,4.102161211,-0.4752871236,-2.029320631,4.601278809
6.988204917,4.78920525,-0.137164204,-2.199817253,5.272048643
6.998191917,4.949491464,-0.1838990253,-1.990685738,5.337987852
7.008178917,5.536812117,-0.2256674409,-1.554503916,5.755318986
7.018165917,6.187096757,-0.4024448499,-1.20936558,6.317016166
7.028152917,6.418698537,-0.4239794143,-1.108016961,6.527415341
7.038139917,6.241176485,-0.1854160854,-1.070424042,6.33501939
7.048125917,5.570890274,0.01732149929,-1.017619591,5.663097042
7.058112917,4.448809298,0.3626641953,-0.6366196972,4.508737531
7.068099917,3.427153374,0.8006925684,0.09890331388,3.520833808
7.078086917,2.735446765,0.991023531,0.9713874114,3.06730992
7.088073917,2.074925112,1.061538028,1.71236529,2.89212242
7.098059917,1.534864873,1.066807247,2.192090743,2.880824483
7.108046917,1.069298453,1.359468868,2.111667554,2.729596059
7.118033917,0.7351306629,1.335602288,1.760757431,2.329059316
7.128020917,-0.06544905424,1.398492893,1.230819599,1.864130585
7.138007917,-1.341674037,1.274363814,0.9521319455,2.081020806
7.147994917,-2.354825771,0.9730795956,0.9789238876,2.729538475
7.157980917,-2.864625208,0.8408965614,1.064590275,3.169627275
7.167967917,-2.897439782,0.4804595706,1.023143456,3.11011595
7.177954917,-2.517817492,0.264910444,0.8305952293,2.664483233
7.187941917,-1.811238198,-0.02178029358,0.6762293208,1.933479839
7.197928917,-1.763519071,-0.1696253872,0.5720366156,1.861719145
7.207915917,-2.330338801,0.1352536994,0.8207140195,2.474337082
7.217901917,-2.385549966,0.05079242349,1.523787323,2.831140462
7.227888917,-1.964427062,-0.3683085126,2.047790816,2.861480748
7.237875917,-1.120657471,-0.4535270029,2.113231684,2.434606346
7.247862917,-0.6129910988,-0.7492072499,2.383285339,2.572376061
7.257849917,-0.7723248017,-0.8392344904,2.396036362,2.653637198
7.267835917,-1.352956824,-0.7656706703,2.203095202,2.696362775
7.277822917,-2.066271526,-0.7109167582,1.750224842,2.799672776
7.287809917,-2.482668709,-0.2936933631,1.516518649,2.923991882
7.297796917,-2.341409919,-0.3002270418,1.578007969,2.839444635
7.307783917,-2.076890069,-0.2322648543,1.474637382,2.557728432
7.317770917,-1.728870226,0.02604408324,1.426888434,2.241803104
7.327756917,-1.228644435,-0.1344035143,1.358780651,1.83682234
7.337743917,-0.8372131079,-0.3396419531,1.119865174,1.438881667
7.347730917,-0.3595780349,-0.466376844,0.6793920797,0.8990980602
7.357717917,-0.122318489,-0.4141237861,0.1697072482,0.4639621461
7.367704917,-0.2998890728,-0.3219716674,-0.2019189745,0.484118253
7.377690917,-0.6724385709,-0.2131713563,-0.3743399155,0.7985900269
7.387677917,-0.9768001789,-0.453335799,-0.2632129973,1.108572514
7.397664917,-1.193914897,-0.5858313668,-0.05307810009,1.330957722
7.407651917,-1.520916924,-0.3280135953,-0.04078082085,1.556420343
7.417638917,-1.37311627,-0.09995990574,-0.03986631632,1.377326975
7.427625917,-0.9842495316,0.05812073886,0.02438815176,0.9862656553
7.437611917,-0.6279190403,0.2310720223,0.1052147985,0.6773084633
7.447598917,-0.6460986185,0.1774132937,0.1691038156,0.6910246031
7.457585917,-0.9040988231,0.1007995659,0.1351689148,0.9196879198
7.467572917,-0.9839472306,0.1652785671,0.1526099896,1.009335904
7.477559917,-1.054909624,0.2538720703,0.3055298817,1.127223958
7.487546917,-1.07932672,0.3039832932,0.613284629,1.278072786
7.497532917,-1.128712596,0.379059788,0.7784491754,1.422554591
7.507519917,-1.08668661,0.5061338174,0.7750455111,1.427499483
7.517506917,-0.8946099615,0.4668522227,0.6581982619,1.204783355
7.527493917,-0.8313810951,0.4854492921,0.5219739246,1.095131188
7.537480917,-0.5341191763,0.4610909611,0.3816699851,0.8022220057
7.547466916,-0.2186607224,0.5787059498,0.2935945451,0.6847706512
7.557453917,-0.1938302287,0.7796156949,0.1071022797,0.8104577025
7.567440917,-0.2628414068,1.105126682,0.01478059173,1.136049759
7.577427917,-0.04098430395,0.8964810705,0.1904753888,0.9174087948
7.587414917,0.5897314596,0.773172648,0.2384260654,1.001212328
7.597401917,0.9480464959,0.8997783154,-0.05980766058,1.308422765
7.607387917,1.075435106,0.7587808961,-0.1857461607,1.329214336
7.617374917,1.020675931,0.6674351084,-0.3526444066,1.269490865
7.627361917,0.7177784657,0.6909128487,-0.3028249598,1.041282597
7.637348917,0.2389885676,0.5239081836,0.0298851192,0.5766181064
7.647335917,-0.09255645365,0.3964201713,0.436319232,0.5967328728
7.657321917,-0.001452740729,0.3899174827,0.6178366864,0.7305887522
7.667308917,0.4758157119,0.5968206239,0.6030759752,0.9727775083
7.677295917,0.9898038018,0.6577298999,0.4902118492,1.285545738
7.687282917,0.986348682,0.6373868519,0.3737984633,1.232424851
7.697269917,0.7212710077,0.5401704597,0.2506970322,0.9353421802
7.707256917,0.5456744438,0.4859322721,0.09764148474,0.7371734065
7.717242917,0.5074164042,0.4473663765,-0.06218806207,0.6793198342
7.727229917,0.6706215486,0.4199312407,-0.1020169562,0.7977988266
7.737216917,0.8389102623,0.3341537565,0.06836213708,0.9055951319
7.747203917,0.7947474119,-0.03703860283,0.1853625834,0.8169177401
7.757190917,0.6454370061,-0.1569451153,0.07629973233,0.6686122547
7.767177917,0.3490729272,-0.05763191164,-0.2336295944,0.4239765715
7.777163917,0.2342625555,-0.03574227512,-0.415656926,0.4784633061
7.787150917,0.2289132303,-0.17598248,-0.4230226636,0.5121711376
7.797137917,0.3641645908,-0.272731095,-0.4072071147,0.6105863851
7.807124917,0.5525914076,-0.2746407956,-0.4380225259,0.7567354647
7.817111917,0.5830349359,-0.3061461782,-0.4502274191,0.7977217233
7.827097917,0.5899016136,-0.3591622978,-0.4551794261,0.8271455615
7.837084917,0.5793532366,-0.3888199604,-0.5018273431,0.8594543714
7.847071917,0.6160889536,-0.3528701091,-0.5930515087,0.9250908088
7.857058917,0.4827139646,-0.1691114169,-0.631086477,0.8123309575
7.867045917,0.3582679662,-0.07417719305,-0.4853007728,0.6077623151
7.877032917,0.2220845595,-0.08625637114,-0.1680133098,0.2915307624
7.887018917,0.1772837779,-0.09615336835,0.09001788497,0.2208579357
7.897005917,0.115878658,-0.1029887635,0.1347180945,0.205386255
7.906992917,0.1279663146,-0.08357132971,0.007585592866,0.1530264227
7.916979917,0.04277033597,0.02125170529,-0.1517446017,0.1590828739
7.926966917,-0.02594497293,0.07259669065,-0.1916354764,0.2065613151
7.93695425,-0.1347280347,0.01141025662,-0.08073601484,0.1574806064
7.94694025,-0.2327188906,0.02923900187,0.05086843729,0.2400012483
7.95692725,-0.1934656549,0.134053266,0.1401109815,0.2739166385
7.96691425,0.01245281518,0.2458765876,0.1979270804,0.3158884267
7.97690125,0.2413794941,0.3545605391,0.1960162103,0.471592611
7.98688825,0.2958088857,0.4736425942,0.1856941205,0.5884917249
7.99687525,0.3620110613,0.6051838964,0.2276718664,0.7410357857
8.00686125,0.3971791399,0.6281786567,0.3470860434,0.8202611873
8.01684825,0.4507484061,0.6492444205,0.532962597,0.9532793782
8.02683525,0.4836062497,0.5393091649,0.6242060584,0.9562230824
8.03682225,0.4180437595,0.4797207749,0.5800145566,0.8609933174
8.04680925,0.2769697416,0.3853396976,0.4636298221,0.66343917
8.05679525,0.1737125909,0.1401174134,0.3390496302,0.4059108344
8.06678225,0.1996616569,-0.04731157601,0.07142958641,0.2172679182
8.07676925,0.1814955273,0.03387467444,-0.3058941633,0.3572944991
8.08675625,0.1673923355,0.1001809305,-0.5045258331,0.5409276561
8.09674325,0.237491388,0.05935742497,-0.4543660784,0.516114325
8.10673025,0.27787606,-0.01646283567,-0.2614149785,0.3818689836
8.11671625,0.3236936724,-0.0009981197119,-0.08928815246,0.3357841032
8.12670325,0.3500324553,0.04833425403,0.05809793472,0.3580981568
8.13669025,0.2286752486,0.0136409694,0.2371835321,0.3297491066
8.14667725,0.1786090493,-0.08363740325,0.2622692567,0.3281487022
8.15666425,0.1442192352,0.001577578783,0.14885023,0.2072632807
8.16665125,0.07695432812,0.03811799884,0.09413374007,0.1274210009
8.17663725,-0.1661267057,-0.03518445075,0.1575690132,0.2316549629
8.18662425,-0.2196024165,-0.1473404789,0.2086649072,0.33686122
8.19661125,-0.1440493736,-0.1764104962,0.1162601888,0.2557094381
8.20659825,-0.02585083276,-0.06916554451,-0.07669032633,0.1064591201
8.21658525,0.02486733109,0.01867308319,-0.1763736588,0.179094209
8.22657125,0.02189314485,0.03155508399,-0.08958519101,0.09747071132
8.23655825,-0.073306835,-0.01232651532,0.0893273288,0.1162119043
8.24654525,-0.1326856023,0.02051963389,0.1554488128,0.205404133
8.25653225,-0.07073493719,0.1740692711,0.1260571986,0.2262608225
8.26651925,0.04596028447,0.2688134605,0.1143136507,0.295703627
8.27650625,0.03198134601,0.3364967358,0.1812882435,0.3835600174
8.28649225,-0.06749704152,0.3336660987,0.3230884856,0.4693347266
8.29647925,-0.1618202314,0.3074126852,0.4504659855,0.5688654941
8.30646625,-0.2554376623,0.2939956641,0.5126031768,0.6437731485
8.31645325,-0.2345487767,0.220389744,0.4973495454,0.5924030201
8.32644025,-0.08587805629,0.148012324,0.4152996612,0.449173126
8.33642725,0.08347192705,0.1366751575,0.3075354767,0.3467358227
8.34641325,0.2492124242,0.1269243407,0.2327940273,0.363881409
8.35640025,0.3085911915,0.1160186988,0.1931820649,0.3821101571
8.36638725,0.2984717077,0.0859651798,0.2462554872,0.3963800416
8.37637425,0.3127348208,0.1231955713,0.3346028227,0.4742776253
8.38636125,0.3040683702,0.2194945353,0.4428844857,0.5803292966
8.39634825,0.3162259009,0.2932688552,0.5691475064,0.7140968603
8.40633425,0.2946996689,0.3857612818,0.7249108994,0.8724422465
8.41632125,0.2845831087,0.4609646612,0.8825494945,1.035552787
8.42630825,0.3417753097,0.4953907281,0.9956352299,1.163405281
8.43629525,0.5543952736,0.5644077533,1.009277954,1.282400959
8.44628225,0.6276988927,0.7143186682,0.8295707971,1.261921062
8.45626825,0.4656161213,0.882913776,0.6039565659,1.166661323
8.46625525,0.2543459871,0.9851342154,0.443650471,1.109958127
8.47624225,-0.1655533862,1.261568937,0.2806289291,1.302964582
8.48622925,-0.5224045721,1.548643836,0.2952767891,1.660840947
8.49621625,-0.5850741524,1.748627967,0.4012347686,1.887061438
8.50620325,-0.6257500157,2.037474573,0.4352871984,2.17539437
8.51618925,-0.7149674168,2.282053664,0.4640607619,2.436041815
8.52617625,-0.7808175901,2.351133254,0.634160943,2.557276635
8.53616325,-0.8730012837,2.320615466,0.900579384,2.637883737
8.54615025,-0.9814416987,2.312465617,1.12800976,2.753748547
8.55613725,-0.9558577913,2.310689818,1.243844272,2.792865934
8.56612425,-0.881575056,2.27247534,1.260230509,2.743993383
8.57611025,-0.9199529636,2.014616053,1.236080339,2.536313447
8.58609725,-0.9456163931,1.490313182,1.249362874,2.162436435
8.59608425,-0.946747537,1.108539702,1.132785766,1.846183837
8.60607125,-0.9805970684,0.7191139698,0.965159542,1.552491048
8.61605825,-0.8884086969,0.3933977455,0.8003499216,1.258805702
8.62604525,-0.7740789664,0.1694634193,0.603471247,0.9960389764
8.63603125,-0.5181840518,-0.1032665062,0.4231881398,0.6769541229
8.64601825,-0.222402648,-0.4197224951,0.2715973198,0.5471700055
8.65600525,-0.009423665106,-0.7008583778,0.1087932944,0.7093146355
8.66599225,0.01014784276,-1.018790204,-0.04369273424,1.019777188
8.67597925,-0.03504557937,-1.281095129,-0.1997607672,1.297049454
8.68596625,-0.001220898628,-1.490820721,-0.3732535028,1.53683639
8.69595225,0.2111511433,-1.449492601,-0.6150463951,1.588677334
8.70593925,0.4923919836,-1.342701393,-0.8508903301,1.66412477
8.71592625,0.7185868433,-1.245083297,-0.9952335262,1.748453385
8.72591325,0.7755510029,-1.294123895,-1.022855773,1.822764369
8.73590025,0.6801150879,-1.306388429,-1.00468672,1.782863614
8.74588625,0.5055207369,-1.297621699,-0.9325513744,1.676014724
8.75587325,0.4624954623,-1.277518387,-0.8217320198,1.587828326
8.76586025,0.3945256734,-1.282376254,-0.7558789229,1.539965035
8.77584725,0.1738859609,-1.297518203,-0.6769865352,1.473804798
8.78583425,-0.09684567869,-1.212829471,-0.5718003881,1.344354899
8.79582125,-0.2227245373,-1.087648185,-0.3941713321,1.178115373
8.80580725,-0.2235641974,-1.002626161,-0.1647026163,1.040368743
8.81579425,-0.08802953929,-0.8154351532,-0.004647951722,0.8201861328
8.82578125,0.03697896123,-0.5138006866,0.02540264368,0.5157556431
8.83576825,0.006802943051,-0.2520986098,0.03945174873,0.255257575
8.84575525,-0.1501462653,-0.1219670713,0.09634632647,0.2161075707
8.85574225,-0.3205022621,-0.05471005797,0.1199252236,0.3465500681
8.86572825,-0.4387741855,0.1098381919,0.03239123583,0.4534715056
8.87571525,-0.5580193779,0.3218670022,-0.04098781228,0.6454951541
8.88570225,-0.6594826028,0.3892649335,-0.005170692801,0.7658140948
8.89568925,-0.7602429923,0.4231846315,0.007696105242,0.870122905
8.90567625,-0.9388005862,0.5444547147,-0.04925752938,1.086371843
8.91566325,-1.068324891,0.7061278886,-0.1248105723,1.286667147
8.92564925,-1.037870253,0.8204906559,-0.143904655,1.330822351
8.935636042,-0.9198819199,0.8039336801,-0.1308589321,1.228664384
8.945623042,-0.8400092465,0.672688247,-0.1107690686,1.081847863
8.955610042,-0.7465227932,0.400177592,-0.06231494665,0.8493065044
8.965597042,-0.7329891202,0.1936667991,0.04586439013,0.7595284206
8.975583042,-0.613874613,0.1197831362,0.03680237532,0.6265336823
8.985570042,-0.3967297813,0.1297228181,-0.03744147599,0.4190756412
8.995557042,-0.2168518862,0.0697835952,-0.1192147869,0.257112147
9.005544042,-0.1144773728,-0.03130540788,-0.1655241501,0.2036745976
9.015531042,-0.1470652212,-0.2967877096,-0.1714274991,0.3729591282
9.025518042,-0.2250622541,-0.5637815166,-0.1475310981,0.624714368
9.035504042,-0.1775837401,-0.8149995357,-0.0627148962,0.8364767696
9.045491042,0.1335471895,-1.042801795,0.001056007147,1.051318958
9.055478042,0.4849006771,-1.12905992,-0.06628286719,1.230568319
9.065465042,0.8395489244,-1.118529085,-0.1845767176,1.410680075
9.075452042,1.065230545,-1.078457531,-0.2812300229,1.541712388
9.085439042,1.074587698,-1.077285165,-0.3457213032,1.560386255
9.095425042,0.9638851413,-1.138707826,-0.3665426534,1.536256357
9.105412042,0.8362655666,-1.181697725,-0.2628814602,1.471345056
9.115399042,0.7725559129,-1.222243488,-0.1783125955,1.456886119
9.125386042,0.8390035254,-1.230517883,-0.172878778,1.499329266
9.135373041,0.935050182,-1.134281484,-0.2436096221,1.490053347
9.145360042,0.9646208672,-0.9799810642,-0.3162829113,1.410989434
9.155346042,0.9719966912,-0.9187864441,-0.2847979939,1.367499907
9.165333042,0.9596315843,-0.8988643956,-0.2368104798,1.336012419
9.175320042,0.8324504046,-0.849319768,-0.1945982605,1.205066897
9.185307042,0.6884124331,-0.8362681979,-0.165711261,1.095772056
9.195294042,0.6118484066,-0.8116578519,-0.1620555818,1.029275936
9.205281042,0.6121401827,-0.7642310858,-0.2087204558,1.001163815
9.215267042,0.6398377123,-0.6354783207,-0.2567407143,0.9376250789
9.225254042,0.7424468453,-0.557516225,-0.2418864477,0.9594585519
9.235241042,0.9021704113,-0.4965952545,-0.2015611249,1.049354652
9.245228042,1.008011008,-0.4378886247,-0.1338649857,1.107137062
9.255215042,0.9681144324,-0.4238067752,0.0133047545,1.056898649
9.265202042,0.8116710082,-0.4480183411,0.1543471974,0.9398687764
9.275188042,0.6476131935,-0.4121714008,0.1880569804,0.7903502641
9.285175042,0.5244930513,-0.3171120465,0.1234815001,0.6252205145
9.295162042,0.4042256194,-0.2262036306,0.1033869588,0.4746106796
9.305149042,0.3920704275,-0.1612644535,0.18567424,0.4628178557
9.315136042,0.5271893486,-0.0674868089,0.2800208187,0.600745152
9.325122042,0.6326669794,-0.004844418168,0.3386637139,0.7176239171
9.335109042,0.727242769,0.05310850561,0.3089581043,0.7919328688
9.345096042,0.7312299854,0.175839808,0.1229464799,0.7620582435
9.355083042,0.6167689848,0.172918539,-0.07808371782,0.6452920802
9.365070042,0.4003000912,0.1048288822,-0.2552321327,0.4861817552
9.375057042,0.1455889454,0.02948984742,-0.328812325,0.3608092809
9.385043042,-0.0153615126,-0.04026626587,-0.2010886699,0.2056550544
9.395030042,-0.1289805141,-0.05125669241,-0.03798760593,0.1438967677
9.405017042,-0.06880506366,-0.07879707813,0.05862944663,0.1199188406
9.415004042,0.05029394835,-0.09433839262,0.1438508606,0.1792269055
9.424991042,0.1641307586,-0.07720488131,0.1967599761,0.2676078994
9.434978042,0.2225532138,-0.1051153958,0.1193750006,0.2735499409
9.444964042,0.2386409506,-0.08938346207,-0.1269360352,0.2846957387
9.454951042,0.1805728367,-0.1705276126,-0.3610620582,0.4382374081
9.464938042,0.08366634697,-0.3157350272,-0.5726166594,0.6592256849
9.474925042,-0.0253786701,-0.3961213785,-0.7973339278,0.8906725637
9.484912042,-0.1031916618,-0.5218499637,-0.9459455913,1.085259861
9.494899042,-0.1958548272,-0.5836538637,-0.9568763763,1.137815163
9.504885042,-0.3099734733,-0.5772318667,-0.8399414188,1.065261362
9.514872042,-0.3943660444,-0.5397085297,-0.5748163819,0.8816029418
9.524859042,-0.3603703326,-0.4512951207,-0.2472992152,0.6282443509
9.534846042,-0.3231069043,-0.3497079349,0.0439546895,0.478148226
9.544833042,-0.1893612018,-0.2625317967,0.1633893317,0.3625971356
9.554820042,-0.03451465219,-0.1625175118,0.06080578029,0.1769196026
9.564806042,-0.06105165571,-0.2164025277,-0.1240673912,0.2568074691
9.574793042,-0.2442525235,-0.3700772953,-0.3584331501,0.5701673638
9.584780042,-0.603787289,-0.4814989132,-0.5675822067,0.9584100662
9.594767042,-0.9412593403,-0.5535494739,-0.7479115069,1.32353987
9.604754042,-1.190865574,-0.621982947,-0.836244809,1.582507183
9.614741042,-1.231794915,-0.6784413224,-0.7872813946,1.611649259
9.624727042,-0.9546053177,-0.6916589534,-0.7095385695,1.375902759
9.634714042,-0.5408580923,-0.7283174872,-0.6425078434,1.111660995
9.644701042,-0.2091353157,-0.7078604186,-0.6504208803,0.983794325
9.654688042,-0.04674702734,-0.669788028,-0.7117733753,0.9784797518
9.664675042,-0.06955087602,-0.6553237706,-0.8374639535,1.065660566
9.674662042,-0.2105140892,-0.575853678,-0.9702922279,1.147776393
9.684648042,-0.3161563191,-0.5809916264,-1.050433581,1.241336697
9.694635042,-0.4084598807,-0.6916104215,-1.094033929,1.357230521
9.704622042,-0.5205217686,-0.6790874398,-1.193687441,1.468670272
9.714609042,-0.6459749499,-0.741976583,-1.245407233,1.587089179
9.724596042,-0.7822966433,-0.873835389,-1.135525771,1.632481272
9.734583042,-0.8404235217,-0.8075724024,-0.8889007401,1.465820387
9.744569042,-0.7272424766,-0.7015161896,-0.5743421727,1.162271705
9.754556042,-0.5652933142,-0.59213525,-0.2799032897,0.8651742812
9.764543042,-0.4192868775,-0.4327062374,-0.1069946909,0.611951009
9.774530041,-0.2442408291,-0.4173415089,-0.01428767145,0.4837681833
9.784517042,-0.1152091518,-0.4485019058,-0.05123447299,0.4658884839
9.794504042,0.005975269675,-0.3696545416,-0.2607291001,0.4523934655
9.804490042,0.2097425491,-0.2389786273,-0.5904927671,0.670659697
9.814477042,0.4901004598,-0.1158935684,-0.9186928886,1.047676669
9.824464042,0.7815107775,-0.02044420481,-1.306207166,1.522285854
9.834451042,1.035520257,0.0300886023,-1.719460886,2.007424536
9.844438042,1.109871405,0.1360688013,-2.074916049,2.357033276
9.854424042,0.992365467,0.08886013627,-2.303138139,2.509408422
9.864411042,0.7491420534,0.02074650586,-2.437467393,2.550076769
9.874398042,0.3109446958,0.09386710703,-2.450730048,2.472160069
9.884385042,-0.03834750205,0.1057515728,-2.236453568,2.239280797
9.894372042,-0.04422775447,0.07280251265,-1.876348699,1.878281326
9.904359042,0.20677421,0.2386897749,-1.577461254,1.608761135
9.914345042,0.4258933541,0.3298724252,-1.368548425,1.470756865
9.924332042,0.6594112667,0.4269882452,-1.229129169,1.458732564
9.934319042,0.6898398846,0.7018079656,-1.185486721,1.540711606
9.944305792,0.5082534331,0.8425311506,-1.144639242,1.509430119
9.954292792,0.3279831898,0.6584052533,-0.9999446279,1.241353982
9.964279792,0.1315541661,0.396882686,-0.9496527261,1.037623566
9.974265792,0.02059798658,0.3939696032,-1.041262223,1.11349151
9.984252792,-0.2045788729,0.3149380517,-1.199303691,1.256729022
9.994239792,-0.7611937496,0.1403863853,-1.191191264,1.4205847
10.00422679,-1.196698172,-0.4907731819,-1.120308977,1.711150793
10.01421379,-1.848664764,-0.7175749826,-1.1534738,2.294117929
10.02420079,-2.287659974,-0.989320237,-0.7703016651,2.608736733
10.03418679,-2.471240619,-1.32548719,-0.1820700163,2.810177214
10.04417379,-2.292830082,-1.473323513,0.3642569768,2.749624539
10.05416079,-2.002797076,-1.379061719,0.6285300744,2.51158464
10.06414779,-1.660964464,-1.171356924,0.7751390666,2.17525184
10.07413479,-1.373236722,-1.017880377,0.9518904555,1.956516035
10.08412179,-1.233586209,-0.6828957313,1.041875011,1.753164298
10.09410779,-1.05308617,-0.3757023168,1.070927487,1.54823396
10.10409479,-0.8210666066,-0.191986894,1.137581068,1.416015546
10.11408179,-0.536051681,-0.203595956,1.237887129,1.364246041
10.12406879,-0.2867302063,-0.05222557604,1.328009094,1.35961387
10.13405579,-0.05900600731,0.3334941906,1.391623877,1.432241983
10.14404279,0.214673506,0.5319106829,1.616522409,1.715272103
10.15402879,0.5203606778,0.4953690934,1.999409199,2.124571232
10.16401579,0.8656215128,0.234686771,2.397829118,2.560070891
10.17400279,1.224207568,0.1019099522,2.619799365,2.893513179
10.18398979,1.603440433,0.1685541773,2.555231778,3.021364125
10.19397679,2.050443113,0.2379126799,2.341677137,3.121597542
10.20396379,2.413017407,0.2729222989,2.088841193,3.203185464
10.21394979,2.490125663,0.3380386466,1.732590517,3.052354148
10.22393679,2.581906776,0.2685906816,1.475949497,2.986102891
10.23392379,2.485539107,0.3435192418,1.266840202,2.810835146
10.24391079,2.310215316,0.3789434284,1.133502342,2.601061416
10.25389779,2.08175583,0.2523751831,1.039300482,2.340415788
10.26388479,1.836970333,0.1702837837,0.9639012212,2.081480755
10.27387079,1.735205976,0.07106355071,0.7731176841,1.900973635
10.28385779,1.680138068,0.2283466351,0.4090846556,1.744235182
10.29384479,1.603403303,0.7079989976,-0.1037956792,1.755829797
10.30383179,1.528608937,1.205439175,-0.6015416658,2.037542947
10.31381879,1.434646812,1.583010846,-0.991765835,2.355362878
10.32380579,1.090379712,1.81571775,-1.235045967,2.451753944
10.33379179,0.6877717245,2.011572577,-1.155605987,2.419685801
10.34377879,0.4239804375,2.223041224,-0.7472472632,2.383285583
10.35376579,0.5881570968,2.156242633,-0.1006697577,2.237285289
10.36375279,1.030261856,2.01014001,0.4689618981,2.306952018
10.37373979,1.134618868,2.14091942,0.7205611557,2.527865565
10.38372679,0.9861203483,2.281330363,0.6927491668,2.580078095
10.39371279,0.3149950621,2.381590816,0.506533767,2.45515237
10.40369979,-0.9854414865,2.294438066,0.4121737397,2.530894734
10.41368679,-2.193878236,2.465191966,0.5277217376,3.341969985
10.42367379,-2.317259164,2.244429755,1.026426668,3.385366548
10.43366079,-1.729767188,1.807740979,1.641647894,2.992495577
10.44364779,-0.9538191596,1.372183054,1.875393702,2.511923339
10.45363379,-0.5668323013,1.00222972,1.400851806,1.813325413
10.46362079,-0.6938148218,0.7490318334,0.3357253419,1.074774023
10.47360779,-1.578238641,0.5028851044,-0.7888092721,1.834652748
10.48359479,-2.907889633,0.1739090574,-1.483383062,3.269020005
10.49358179,-3.850571601,-0.1776448435,-1.52032694,4.143652176
10.50356879,-4.23668547,-0.3857162583,-0.9152565531,4.351548617
10.51355479,-3.980612508,-0.7233397526,0.1741213844,4.049544986
10.52354179,-3.148619794,-1.352125935,1.448661126,3.720305124
10.53352879,-1.789936207,-1.858954402,2.227631289,3.409094345
10.54351579,-0.7095283368,-2.423863846,2.388839024,3.476362796
10.55350279,1.047750294,-4.321464835,4.103949582,6.051052897
10.56348979,2.898094963,-4.392994993,5.697419928,7.75615583
10.57347579,2.079056463,-3.506849461,6.995762004,8.096984311
10.58346279,0.4090633133,-4.098481266,7.016361744,8.135982646
10.59344979,-0.4306968418,-3.551530375,2.647408748,4.450577586
10.60343679,0.9711162467,-2.873582557,0.1627817329,3.037604545
10.61342379,2.38347245,-2.819188249,-0.06128642142,3.692224171
10.62341079,2.401177526,-2.221681747,-0.2143273509,3.278331818
10.63339679,2.018454458,-1.193462323,0.2348942741,2.356625985
10.64338379,1.761636999,-0.2240220344,0.4990948661,1.844626378
10.65337079,1.005240597,0.5607631838,0.8906086387,1.455385775
10.66335779,1.538789816,1.045005026,0.1076670476,1.86319666
10.67334479,1.109908827,1.202904407,-0.7398674923,1.796184991
10.68333179,-0.7529915679,0.5744772434,-0.8471504509,1.270702283
10.69331779,-2.631500228,0.5614151484,0.1688797941,2.696015728
10.70330479,-4.746891289,0.02363152206,2.53546205,5.381645024
10.71329179,-1.937898245,-0.9446720678,1.900694166,2.874107381
10.72327879,-0.2088334532,0.04461600959,0.1223594195,0.2461175065
10.73326579,0.05856688142,0.3298022586,-0.7972268506,0.864737105
10.74325179,0.4859009895,0.4371050978,-0.5803999612,0.8740850949
10.75323879,0.5312708513,0.6097529107,0.005255477428,0.8087490029
10.76322579,-0.07308858767,0.7157027042,0.6238154644,0.9522174311
10.77321279,-0.06938101441,1.045841762,0.9081251427,1.386827312
10.78319979,-0.1180152306,1.196231564,0.9385710829,1.525061713
10.79318679,-0.4806167145,1.426387328,1.203356397,1.927080655
10.80317379,-0.8008061506,1.53724352,1.409342694,2.233977386
10.81315979,-1.185794431,1.794438563,1.527579827,2.638108852
10.82314679,-1.009058098,2.022754208,1.831425126,2.909269809
10.83313379,0.6249039236,1.527903762,2.116976241,2.684508004
10.84312079,0.6875628327,2.448749596,2.833353714,3.807493992
10.85310779,-2.402211607,3.440364865,-2.244571257,4.758658544
10.86309379,-0.05582979977,1.559652389,-2.781535104,3.189446672
10.87308079,1.104709483,1.50593285,-0.8212535714,2.040263272
10.88306779,-0.202726475,1.46339611,-0.4783928722,1.552895984
10.89305479,-1.253192508,0.3235281962,0.6952240008,1.469182891
10.90304179,-1.085769401,-0.9346487707,2.29033566,2.70149976
10.91302879,0.8437241288,0.2823825091,3.069000013,3.195367172
10.92301479,1.90673931,0.4547081405,-0.02868351638,1.960417566
10.93300179,3.381505038,0.378123064,-2.439499885,4.186730594
10.94298879,4.263463964,0.3595920682,-3.585003346,5.581996096
10.95297579,3.343598124,-0.5319638926,-2.482176374,4.198074981
10.96296279,1.315888547,-0.5857395655,-0.02551136535,1.440591662
10.97294979,0.1811110729,0.2005185664,1.424890441,1.450283312
10.98293679,-0.2945217673,0.8815934747,1.164946622,1.490319012
10.99292279,-0.9089042111,1.068680987,0.4922064076,1.486759249
11.00290979,-0.9068208481,-0.2437365067,0.4250843918,1.030741614
11.01289679,0.7907045008,-1.061004762,0.8730237955,1.585280814
11.02288379,0.4479247856,0.7549053615,-1.004781956,1.334205943
11.03287079,-1.15509801,-0.2793688542,-1.827978777,2.180322173
11.04285679,-1.595997366,-0.4681894809,-0.6711722101,1.793566592
11.05284379,-1.350445445,-0.1396244931,-0.8832342035,1.61966063
11.06283079,-1.045285838,-1.273772076,-0.6511177222,1.771742666
11.07281779,-0.9522491822,-2.949322127,-0.4371553838,3.129917625
11.08280479,-0.3645351581,-3.577436464,-1.050030123,3.746131444
11.09279179,0.5791079459,-3.170317057,-1.058845385,3.39226028
11.10277879,1.416276176,-1.18437458,-1.309504995,2.263489494
11.11276479,1.095283771,-0.3663929647,-0.8057521641,1.408235383
11.12275179,0.4505706507,-0.833617655,0.1007390472,0.9529326638
11.13273879,0.3214128198,-1.363744352,0.3725971529,1.449804641
11.14272579,0.1132668529,-2.11629504,0.2132787989,2.13002862
11.15271279,-0.2936022927,-2.713433168,1.917281255,3.335399417
11.16269879,-1.028506084,-2.357317269,3.512919456,4.353776817
11.17268579,-0.6867633721,-1.549663006,0.8334754215,1.888856967
11.18267279,-0.0341231811,-0.9436657619,-0.872554995,1.285698908
11.19265979,-0.02397446126,-0.3982591206,-1.038990141,1.11296254
11.20264679,0.06366375312,0.01093312383,-0.8907651249,0.8931042013
11.21263379,0.03904098183,0.1870038968,-0.4174346258,0.4590711519
11.22261979,0.07622634977,0.3365569621,-0.4819555807,0.5927581521
11.23260679,-0.03905998528,-0.04605091631,-0.1376042801,0.1502707798
11.24259379,-0.1543365262,-0.1724513465,0.2426008312,0.3352825578
11.25258079,-0.2044334234,-0.2550432676,0.327873116,0.4629696244
11.26256779,-0.08738049835,-0.07862633944,0.07927918106,0.1417837836
11.27255479,0.04690621778,-0.0615787822,-0.02711558551,0.08202069654
11.28254079,0.1060228837,0.005512754917,-0.002729772627,0.1062011958
11.29252779,0.1157927039,0.1180061674,0.1474843204,0.2215514175
11.30251479,0.165301225,0.004745600224,0.2180815557,0.273690666
11.31250179,0.08885004982,1.656617351,0.2923676531,1.684563511
11.32248879,0.7876414369,5.757462062,-0.3450652456,5.821324458
11.33247579,1.104837683,4.706608066,-0.9911558242,4.93510037
11.34246179,0.5826134978,0.8737856877,-0.8993564388,1.382672022
11.35244879,-0.362511583,-2.379927868,0.168416183,2.41326238
11.36243579,-0.2802131921,-1.858477854,1.058767471,2.157185185
11.37242279,0.0535483624,1.106584393,1.022981342,1.507941402
11.38240979,0.1933707838,1.994471226,-0.2099420853,2.014791158
11.39239679,0.4507457748,2.862964014,-1.041035644,3.079527546
11.40238279,0.5541309795,3.450604509,-0.7909347349,3.583198344
11.41236979,0.4507861206,3.781700757,0.2324484569,3.815560381
11.42235679,-0.2350017898,2.057261551,-0.4548749323,2.120014654
11.43234379,-1.179411756,-1.999988074,-0.5872604263,2.394961209
11.44233079,-1.60938062,-6.267337512,-1.150147904,6.572097509
11.45231779,-0.7747515424,-7.387472827,-0.2609138721,7.432568249
11.46230379,0.5922925401,-5.939809821,1.920352505,6.27055858
11.47229079,1.241344295,-3.775220872,2.567867904,4.731508624
11.48227779,0.7689030111,0.5430431968,1.440765339,1.721020777
11.49226479,-0.508810088,1.129949282,-0.2552458736,1.265236555
11.50225179,-0.5349453878,0.5234199411,-0.6989831758,1.02406664
11.51223879,-0.05599936903,0.2668756932,-0.04804189324,0.2768873209
11.52222479,0.1231765679,0.007117230892,0.09801687598,0.1575767426
11.53221179,0.1426843411,-0.08377305865,0.1557473132,0.2272310985
11.54219879,0.06409147695,-0.04618013978,0.1159197347,0.1402772527
11.55218579,0.04437671229,-0.03706316113,-0.05075339332,0.07693424102
11.56217279,0.1073538561,-0.01925955892,-0.02674004808,0.1122978682
11.57215979,0.1395932105,0.02140197873,0.0680048722,0.1567449258
11.58214579,0.1594088396,0.03036108255,0.1910978249,0.2507017195
11.59213279,0.191912342,0.07922801793,0.2892567882,0.3560574608
11.60211979,-0.04820912361,1.439643551,0.6311320853,1.57264916
11.61210679,0.3001691544,0.1699838215,-0.4134823465,0.5384827497
11.62209379,0.1229409251,0.7184438789,0.1340108737,0.7411039012
11.63208079,0.1722582422,1.064951048,0.4007697688,1.150830154
11.64206779,0.6972741808,2.829510924,-0.1774613871,2.919557483
11.65205379,0.3436939274,5.323171229,-1.151273054,5.457078622
11.66204079,-0.1250298429,6.365543253,-0.7021260542,6.405369183
11.67202779,0.1838601413,7.110001979,-0.6231857193,7.139628361
11.68201479,0.2616152456,7.552995808,-0.5247805882,7.575723258
11.69200179,-0.2261855042,7.672531607,-0.9817802525,7.738397354
11.70198879,0.2988377434,6.780815433,-1.267816687,6.90478972
11.71197479,1.337629664,6.208157258,-1.811571636,6.603958014
11.72196179,0.8192434448,4.889738767,-0.7280567014,5.011064916
11.73194879,0.1280879366,2.453985193,-0.6016720587,2.529912867
11.74193579,0.02989754453,1.128054784,-0.4943171793,1.231970346
11.75192279,1.205518258,-1.942574848,0.5787286077,2.358346478
11.76190979,0.08991833612,-4.130192471,0.1065454786,4.132544868
11.77189579,-0.6208846937,-16.94463571,1.820435869,17.05345021
11.78188279,-2.781086622,-24.87752863,1.731130759,25.09228342
11.79186979,4.123722234,-11.93741001,0.4892843346,12.639076
11.80185679,5.133115085,-2.035336831,-0.1437176172,5.523777806
11.81184379,-0.1670971973,-0.6045266694,0.09954416871,0.6350456746
11.82183079,-0.8478961171,0.6438228822,0.4072531615,1.139864407
11.83181679,-2.140263216,0.9759055549,0.4622960722,2.397255919
11.84180379,-3.017560303,0.2228116608,0.02697554469,3.025895388
11.85179079,-1.35599533,-0.8804491746,-0.6652535123,1.748278101
11.86177779,0.208595033,-1.901050261,-0.4512004689,1.964964592
11.87176479,0.339823363,-1.874656515,0.02336722791,1.905351147
11.88175179,0.2926657149,-0.1121285462,0.3334822769,0.4576422845
11.89173779,0.6855912977,3.589405714,0.3638856786,3.672367301
11.90172479,0.2644675174,3.591942236,0.3475064582,3.618390918
11.91171179,0.1665000504,0.05801665843,-1.423294005,1.434173638
11.92169879,-1.011186192,-0.7981098533,-2.346149088,2.676544861
11.93168579,-0.5911631504,-1.125955634,1.386695259,1.881534932
11.94167263,0.6710293919,-0.4079842097,1.296808351,1.516061826
11.95165863,0.08782576382,0.09639485836,-0.0627454479,0.1447146321
11.96164563,-0.1744910015,-0.001191077828,-0.2875666505,0.3363675174
11.97163262,0.05135346383,-0.0009215211868,-0.1326475954,0.1422441985
11.98161962,0.1928682156,-0.1226751691,-0.07341310814,0.2400767172
11.99160663,0.3245057045,-0.07062559426,-0.1231805147,0.3542109061
12.00159363,0.22471376,0.05949951231,-0.1756304777,0.2913460667
12.01157962,0.1524247791,0.1580718738,-0.1006623025,0.2415635107
12.02156663,0.1619430229,0.1920851272,-0.01083372116,0.2514748661
12.03155363,0.15484845,0.1361079776,0.01463163391,0.2066821442
12.04154063,0.1365840872,0.06314817488,0.01986459956,0.151781116
12.05152762,0.1219523071,0.006816684008,0.006311923116,0.122305653
12.06151462,0.107043369,-0.02501146495,-0.01406153038,0.1108223031
12.07150062,0.09706451073,-0.01374037206,0.01826392427,0.09971904531
12.08148762,0.08574064672,0.03274616182,0.07673710406,0.1196342457
12.09147463,0.09114084274,0.03736955523,0.09496302143,0.1368251158
12.10146163,0.1114431064,0.06650038362,0.08583420217,0.1555936285
12.11144863,0.1088909429,0.1115461636,0.06873241201,0.1703641057
12.12143563,0.1011911832,0.10134745,0.03040391341,0.1464081935
12.13142163,0.11245409,0.03553119063,-0.01520509958,0.1189099782
12.14140863,0.1056726354,0.008559154272,-0.03794506744,0.1126045876
12.15139562,0.08162479162,0.02693929195,-0.01952341452,0.08814474331
12.16138262,0.02995484725,-0.06279441833,0.009498655647,0.07021863219
12.17136963,0.04387443647,-0.05879901588,0.0299365747,0.07923691658
12.18135663,0.01622967795,-0.03170828104,0.07183772206,0.0801840124
12.19134262,-0.02009264097,-0.003853899837,0.07340316787,0.07620099618
12.20132963,-0.007595825493,-0.005108127594,0.0445943749,0.04552414529
12.21131663,-0.006480030566,0.03661409497,-0.0003794842958,0.03718503402
12.22130363,-0.01707211554,0.0755805248,-0.005033867955,0.07764800503
12.23129062,-0.0164745301,0.07865206718,-0.01717736542,0.08217432505
12.24127762,-0.03556042671,0.07638919473,-0.008479193598,0.0846861839
12.25126362,-0.01641254961,0.02991494,0.007055250406,0.03484324868
12.26125062,0.01439219043,-0.0404785198,0.02041920796,0.04756668754
12.27123763,0.01332317322,-0.05918551683,0.04179180443,0.07366808852
12.28122463,0.02966365591,-0.001182307005,0.07325494096,0.07904186679
12.29121163,0.01900052726,0.04518377423,0.09439861894,0.1063658439
12.30119863,0.01560285643,0.07321240246,0.1221161753,0.1432336038
12.31118463,0.002019335926,0.08759538352,0.1520048028,0.1754493916
12.32117163,-0.01443078205,0.04581410408,0.1667244373,0.1735056702
12.33115862,0.01437011719,-0.003184978366,0.1680694431,0.1687127205
12.34114562,0.04180656865,-0.04555858076,0.1452939534,0.157904105
12.35113263,0.03728228554,-0.07795040131,0.07825664923,0.1165776009
12.36111963,0.05887605295,-0.04406520188,0.07359174058,0.1040378581
12.37110562,0.0260532926,-0.03913073659,0.07396537766,0.08764054823
12.38109263,0.02297794953,-0.02054068387,0.101954391,0.1065110497
12.39107963,0.005674138069,0.009947283268,0.1363744645,0.136854444
12.40106663,-0.04878712088,0.05989010632,0.1680023463,0.1849102387
12.41105362,-0.07292647362,0.07214294672,0.1489595729,0.1808641194
12.42104062,-0.07800419569,0.03207724035,0.04852194965,0.09730356361
12.43102662,-0.06929286763,0.01639500797,0.0009659600258,0.07121257522
12.44101362,-0.08950523034,0.0195086503,0.008627566695,0.09201200249
12.45100063,-0.1387140816,-0.03611298859,0.01865831897,0.1445471455
12.46098763,-0.1713590866,-0.002984418869,0.01871518314,0.1724038903
12.47097463,-0.1791984487,0.03204449594,0.02270473838,0.1834514619
12.48096162,-0.1486704281,0.03415475607,-0.01508026153,0.1532868482
12.49094763,-0.06677564129,0.04811322927,0.03011403769,0.08763974194
12.50093463,-0.01402790889,0.0717003125,0.06587224647,0.09837108262
12.51092162,0.0276285325,0.04973700106,0.09324496329,0.1092324506
12.52090862,0.05395503625,0.05779972672,0.1392799459,0.1601588514
12.53089563,0.03969133839,0.04794073641,0.2094724077,0.2185232394
12.54088263,-0.002376162261,0.08010685444,0.228651275,0.2422894134
12.55086863,-0.01486815378,0.1231967407,0.226272043,0.2580649848
12.56085563,-0.003847175539,0.1102393109,0.2029907691,0.2310254505
12.57084263,0.01529953212,0.09108617127,0.1783377385,0.2008360407
12.58082963,-0.002971408814,0.07070804,0.1859981757,0.1990069787
12.59081662,-0.005516117066,0.08986234903,0.1654824887,0.1883882252
12.60080362,0.03197754532,0.08154702365,0.1198673362,0.1484609671
12.61078962,-0.02572935686,-0.01350882232,0.1332046889,0.1363377322
12.62077662,0.01943833753,-0.000228626132,0.195778521,0.1967412781
12.63076363,0.01597707823,-0.107975269,0.2264594463,0.2513917392
12.64075063,0.0501840207,-0.1312828553,0.2763908672,0.3100734357
12.65073763,0.07566311672,-0.1021005714,0.3008775446,0.3266140394
12.66072462,0.08235613212,-0.03845070541,0.2873260376,0.3013589904
12.67071162,0.04639809474,-0.03879803002,0.3102164251,0.3160574326
12.68069763,0.08493899345,-0.0594802165,0.3203670453,0.3367307121
12.69068462,0.1218474957,-0.08152129591,0.302655829,0.336293153
12.70067162,0.0660010314,-0.1071022797,0.2764917317,0.3037675298
12.71065863,0.09726316988,-0.003345776796,0.2764852998,0.2931133559
12.72064563,0.05936809614,0.07555128872,0.2626873326,0.2797091396
12.73063263,0.01503669977,0.2024879086,0.2106857049,0.2926019852
12.74061863,-0.05090074316,0.3562205637,0.1904461527,0.4071286194
12.75060563,-0.07527091473,0.3617397505,0.1992619997,0.4197936424
12.76059263,-0.08420896858,0.2765048879,0.2241737697,0.3657867992
12.77057962,-0.08190984339,0.1070017076,0.2745500176,0.3058370481
12.78056662,-0.05405093059,-0.05008666456,0.3353878114,0.3433877707
12.79055363,-0.03007661551,-0.1642243141,0.3629015923,0.3994643836
12.80053962,0.03612249032,-0.2252224678,0.4640746491,0.5171027695
12.81052663,0.09104655638,-0.2024715364,0.5322416353,0.5766847985
12.82051363,0.1185511279,-0.1252315718,0.5269206691,0.5544210566
12.83050063,0.1402837667,-0.07296974301,0.524763485,0.5480700994
12.84048762,0.1568957064,-0.06151621699,0.5246414244,0.5510436751
12.85047462,0.1902602112,-0.08714047015,0.5167354041,0.5575014685
12.86046063,0.1800511189,-0.1549383509,0.4759382111,0.5319224368
12.87044762,0.1153117704,-0.2207739061,0.4186651723,0.4871534137
12.88043462,0.008093715906,-0.2355907506,0.366954736,0.4361470947
12.89042163,-0.176172076,-0.1966406929,0.3204423282,0.4151956745
12.90040863,-0.306060078,-0.1568591613,0.2449970202,0.4222571583
12.91039563,-0.4359394553,-0.06627117276,0.1601023194,0.4691138772
12.92038163,-0.5173196872,0.06404747665,0.0694921115,0.5258810622
12.93036863,-0.5919477005,0.1429778713,-0.02882004887,0.6096518245
12.94035675,-0.6100490722,0.1928440958,-0.1071584129,0.6487153777
12.95034375,-0.6018455748,0.2146109408,-0.1082104732,0.6480628506
12.96033075,-0.5955240769,0.1801246476,-0.07538318127,0.6267187877
12.97031775,-0.5499509512,0.184932813,-0.03104783803,0.5810423068
12.98030375,-0.5528144789,0.1724601173,0.04217538178,0.5806247523
12.99029075,-0.4481376974,0.1566778976,0.1643792653,0.5023901892
13.00027775,-0.2342545156,0.1937983614,0.2113031709,0.3702458818
13.01026475,0.02377170905,0.2410690069,0.2573406386,0.3534169839
13.02025175,0.331590191,0.3461095583,0.1821115315,0.5127460298
13.03023875,0.467662866,0.4334470797,-0.08744657189,0.6436084447
13.04022475,0.3469573315,0.4798716331,-0.3877604449,0.7078236622
13.05021175,0.1080267245,0.4437954819,-0.5458880134,0.7117709787
13.06019875,-0.1974534559,0.3425825179,-0.5464826752,0.6745324033
13.07018575,-0.3950845941,0.16095689,-0.385815661,0.5751979496
13.08017275,-0.3004802263,-0.02725270271,-0.1910799909,0.3571311231
13.09015975,-0.07011995628,-0.1411552942,0.08930744827,0.1811558601
13.10014575,0.1482616346,-0.1407389724,0.3834636185,0.4345495568
13.11013275,0.2862138241,-0.07545714855,0.4768325427,0.5612320448
13.12011975,0.3738803244,0.08086874664,0.4514899792,0.5917511744
13.13010675,0.2601414549,0.2381208408,0.3366195273,0.4875323759
13.14009375,-0.02408044204,0.3507475698,0.1709641072,0.3909379124
13.15008075,-0.3423495063,0.3126301557,0.003962658048,0.4636340166
13.16006675,-0.6278016575,0.1802334058,-0.1744996262,0.6760688731
13.17005375,-0.7924166387,0.09795080245,-0.2873217984,0.8485707423
13.18004075,-0.9741540214,0.07943851769,-0.2815358323,1.017127799
13.19002775,-1.157767118,0.06039062798,-0.1613948464,1.170521262
13.20001475,-1.257691356,0.0518121779,0.1176880789,1.264247813
13.21000175,-1.167317521,0.06541923344,0.3391364613,1.217342767
13.21998875,-0.9866824119,0.1431439322,0.3560173729,1.058669324
13.22997475,-0.8684123889,0.2990184224,0.3284157376,0.9754019637
13.23996175,-0.6776384997,0.4019908136,0.2835110217,0.8373583761
13.24994875,-0.2465166385,0.3610322374,0.1398501956,0.4589910748
13.25993575,-0.4515284977,0.05075500131,-0.1930787154,0.493693675
13.26992275,-0.1798836692,-0.09492545307,-0.4379139139,0.4828432169
13.27990975,-0.04167917244,-0.2135286212,-0.5654064578,0.6058185273
13.28989575,0.08969789609,-0.1517329073,-0.4830566114,0.5142103437
13.29988275,0.02014702007,-0.05801782787,-0.2910808271,0.297489527
13.30986975,0.009396621734,0.02326080859,-0.02175982833,0.03320921326
13.31985675,0.1796532159,0.06789728343,0.0399655728,0.1961697379
13.32984375,0.24112821,0.1144048673,0.04146669924,0.2700940104
13.33983075,0.172166112,0.1759848189,0.07370006025,0.256989349
13.34981675,0.1065957281,0.2756950486,0.1106246424,0.3156077004
13.35980375,-0.2437605534,0.308028397,0.02079503775,0.3933613279
13.36979075,-0.4073546838,0.3092095345,-0.01749253035,0.5117170735
13.37977775,-0.5391977023,0.3367452425,-0.002995090038,0.6357204504
13.38976475,-0.5486513344,0.3808671623,0.1535619164,0.6853169663
13.39975175,-0.352552386,0.4702278203,0.3263499163,0.6722437472
13.40973775,-0.2291671822,0.6169841623,0.3156093121,0.7299289635
13.41972475,-0.401681971,0.6835225528,0.3923335522,0.884577358
13.42971175,-0.369913756,0.7627961791,0.4585560469,0.9638297805
13.43969875,-0.3635509986,0.8834669226,0.3512989622,1.017887073
13.44968575,-0.9569367488,0.9448948467,0.394381101,1.40146019
13.45967275,-1.552947826,1.0177494,0.4821929777,1.918325013
13.46965875,-1.386955898,1.148196688,0.6108340609,1.901347035
13.47964575,-1.225502068,1.176389038,0.9507397234,1.946702984
13.48963275,-1.715070358,1.170805532,1.214924528,2.405887266
13.49961975,-1.798276383,0.919580496,1.652001998,2.609317313
13.50960675,-1.377378744,0.6208474177,1.864775743,2.400002561
13.51959375,-0.7738025393,0.09391330004,1.800697423,1.962167497
13.52957975,-0.2351045546,-0.442461732,1.793640418,1.862308375
13.53956675,0.1994994332,-0.8443718541,1.767544295,1.969003983
13.54955375,0.5409198535,-1.23521612,1.636609933,2.120576626
13.55954075,0.8966988062,-1.672560369,1.75235162,2.583072422
13.56952775,0.7051102538,-1.902843602,1.83515448,2.736016486
13.57951475,0.7866185396,-1.817554945,2.045917953,2.847464657
13.58950175,0.6414353178,-1.481967452,2.212614908,2.739220971
13.59948775,0.09827543255,-1.195535746,1.810220052,2.17160319
13.60947475,-0.480138595,-1.068124917,1.18199184,1.663889605
13.61946175,-0.652150706,-0.8613656169,0.8073278426,1.348714023
13.62944875,-0.564659476,-0.5521742088,0.6776021739,1.040615869
13.63943575,-0.5144685117,-0.1402273411,0.4812163465,0.7182692593
13.64942275,-0.3929172505,0.2655051059,0.1544508393,0.4987303768
13.65940875,-0.1410400127,0.6344345927,0.03169073939,0.6506948905
13.66939575,0.0163154904,0.7787532306,0.1406338687,0.7915179558
13.67938275,0.1992813686,0.7438243032,0.3310119744,0.8381864858
13.68936975,0.4922949563,0.5675149637,0.2703483546,0.7984458597
13.69935675,0.8800416968,0.4238822043,0.03836942911,0.9775590644
13.70934375,1.298117104,0.5956950349,-0.1913390225,1.441031302
13.71932975,0.2837809804,-0.159959355,-0.3609943036,0.4862463648
13.72931675,-0.08193027209,-0.2453912687,-0.5313938621,0.5910235875
13.73930375,-0.1434282896,-0.06757393241,-0.4247136784,0.4533427172
13.74929075,-0.1377382179,0.5214073294,-0.1701445469,0.565496761
13.75927775,-0.8581252362,0.252892077,0.008746849895,0.8946562641
13.76926475,-0.9158166432,0.2716943836,-0.02481967628,0.9555909054
13.77925075,-0.3428613935,0.7192379308,-0.1900853795,0.8191395411
13.78923775,-0.2076254915,0.9346148568,-0.4615721504,1.062855647
13.79922475,-0.4166279293,0.5656824464,-0.580366559,0.9112633014
13.80921175,0.03262212776,0.6240937918,-0.7242618585,0.9566151284
13.81919875,0.1494055693,0.3178423637,-0.3885790551,0.523774259
13.82918575,0.2065275306,0.3186346614,-0.5530308259,0.67083885
13.83917175,0.4548395567,0.08544653177,-0.612560159,0.7677304738
13.84915875,0.9811758696,-0.01081384063,-0.4013388491,1.060139565
13.85914575,1.402112174,-0.2238483721,-0.2895517802,1.449091741
13.86913275,1.621876704,-0.6195738941,-0.2744770736,1.757752405
13.87911975,1.811970123,-0.6153013337,-0.2735046816,1.933038093
13.88910675,1.823018291,-0.3356623381,-0.2158277464,1.866185015
13.89909275,1.578688877,-0.1525064939,-0.09271579027,1.588745738
13.90907975,1.244669753,0.07431167901,-0.04045924226,1.247542372
13.91906675,1.620373823,0.7650216293,0.4137945879,1.839047412
13.92905375,0.645870504,-0.0475390327,0.005230937395,0.6476388116
13.93904075,0.5491112179,-0.4835851997,-0.3082932758,0.7939915106
13.94902775,0.7668043723,-0.2757505971,0.1196808465,0.8236205693
13.95901375,0.5724480403,-0.2772281885,0.4207095051,0.762593414
13.96900075,0.6541195366,-0.1181605339,0.5521993518,0.8641518408
13.97898775,0.7904388911,0.03752626061,0.4988645589,0.9354505379
13.98897475,1.04100977,0.111387704,0.3684424138,1.109891154
13.99896175,1.257731555,0.163793959,0.01107813478,1.268400509
14.00894875,1.365805788,0.3879089642,-0.3781908917,1.469328815
14.01893575,1.400462382,0.8760766268,-0.3308693755,1.684719467
14.02892175,1.686984866,0.121016314,-0.6586069822,1.815027835
14.03890875,1.698254204,0.1858467329,-0.7029019797,1.847343375
14.04889575,1.342343397,0.324956671,-0.5253618379,1.477662916
14.05888275,1.215899844,0.2218497938,-0.2513332458,1.261268473
14.06886975,0.7851946695,0.2934232217,-0.3463387692,0.9069610792
14.07885675,0.3867918536,0.399150821,-0.3011245529,0.632143427
14.08884275,0.1399403889,0.456244204,-0.1657615288,0.5051920136
14.09882975,0.1663243416,0.8127448493,0.02630432088,0.8300059602
14.10881675,-0.1071225987,0.4932085472,0.08405843932,0.5116597927
14.11880375,0.1601455888,-0.2167223704,-0.1399319836,0.3036381983
14.12879075,1.066406566,0.4537322402,-0.05403762817,1.160179286
14.13877775,0.864470927,-0.07851348817,-0.1674596881,0.8840345573
14.14876375,0.7532962078,0.09609898925,-0.2517062616,0.8000288961
14.15875075,0.7068374482,0.1657229555,-0.1708357243,0.7458338426
14.16873775,0.6667365123,0.1928072584,-0.07187276881,0.6977663725
14.17872475,0.7502334362,0.1435631776,-0.05984384023,0.766186583
14.18871175,0.8139069834,0.1171659225,-0.17898561,0.8415511153
14.19869875,0.8056907684,0.07557584703,-0.175448008,0.8280285782
14.20868475,0.3941327405,-0.03882258832,-0.08354852557,0.4047569229
14.21867175,0.7079326317,0.5558579546,0.01392689824,0.9001892219
14.22865875,0.09312129468,-0.4880273294,-0.3318108503,0.5974451357
14.23864575,-0.561689529,-0.4421524143,-0.265456574,0.7625359514
14.24863275,-0.6116433156,-0.3750854355,0.03890510716,0.71854731
14.25861975,-0.5291516742,-0.2451795995,0.1881038677,0.6127785859
14.26860575,-0.4414712137,0.04082116663,0.2298260538,0.4993828343
14.27859275,-0.1610204785,0.2764785755,0.2196880051,0.3881118611
14.28857975,0.09056898504,0.3245491201,0.02167087756,0.3376455232
14.29856675,0.3176811267,0.3317569828,-0.1711001281,0.4901624708
14.30855375,0.5144672692,0.2373712277,-0.3470860434,0.6644474338
14.31854075,0.6819775723,0.09323911607,-0.466659228,0.8315995292
14.32852675,0.7429171076,-0.06182144165,-0.4981756838,0.8966196136
14.33851375,0.6852604915,-0.1482777876,-0.4366420714,0.8259688505
14.34850075,0.5874260487,-0.1408120626,-0.3083552563,0.6782185221
14.35848775,0.571240371,-0.1843270415,-0.07452152096,0.6048516155
14.36847475,0.5741878062,-0.2233501893,0.08562311769,0.6220195031
14.37846175,0.4743063994,-0.2293248743,0.1572034892,0.5497903195
14.38844875,0.1821612328,-0.08459634662,0.3059484693,0.365983227
14.39843475,-0.03103672832,0.09056693852,0.4417266639,0.4519824051
14.40842175,-0.1297020605,0.157204147,0.5555486369,0.5917516847
14.41840875,-0.007027329952,0.1391485298,0.5297249937,0.5477410571
14.42839575,0.03593143255,0.0787906462,0.4051746225,0.4143253655
14.43838275,0.1180976763,0.07087117732,0.3485688972,0.3747933578
14.44836975,0.1644149333,-0.01854912221,0.3191481201,0.3594883347
14.45835575,0.2200320406,0.1713900769,0.2659477401,0.3853788497
14.46834275,0.2419055973,0.2288629442,0.2945394552,0.4445785149
14.47832975,0.4296156916,0.08262525022,0.1401541778,0.4593906486
14.48831675,0.7241905224,0.3324048543,0.1076424893,0.8040720151
14.49830375,0.9291906872,0.5130674458,0.1692207599,1.0748345
14.50829075,0.981273445,0.5515128887,0.1337585664,1.13355873
14.51827675,0.9436581606,0.3526362205,0.2372321371,1.034950296
14.52826375,0.9030624041,0.1855233818,0.3412084222,0.9830380554
14.53825075,0.8525092779,0.06598290503,0.3701066776,0.9317213991
14.54823775,0.7838917637,0.024372949,0.3117548275,0.8439617351
14.55822475,0.7695545371,0.01377019286,0.230663375,0.8034982242
14.56821175,0.7234919263,0.005723254681,0.1758212431,0.744571308
14.57819775,0.719719449,-0.09205914795,0.1189885727,0.7352749502
14.58818475,0.7577102709,-0.1918003678,0.2015311579,0.8071722513
14.59817175,0.7320222831,-0.2138624972,0.354229002,0.84087572
14.60815875,0.6548381594,-0.1986726004,0.4385107684,0.8127579659
14.61814575,0.5459874161,-0.07785509169,0.4836150205,0.7335169813
14.62813275,0.4933579436,0.06055727363,0.5830796671,0.7661926273
14.63811975,0.5255505203,0.2501117259,0.6960465579,0.9073257604
14.64810575,0.7269125475,0.4683227974,0.8068632082,1.182690294
14.65809275,1.033035629,0.5735346723,0.8820583284,1.474493651
14.66807975,1.332756302,0.5105753624,0.8646429813,1.668692316
14.67806675,1.438322811,0.3604276353,0.7159985733,1.646613053
14.68805375,1.325648573,0.02182707131,0.5877105888,1.450249736
14.69804075,1.042765104,-0.3489384413,0.3730978938,1.16117145
14.70802675,0.7381264839,-0.3618040699,0.4070094057,0.9172728861
14.71801375,0.9716920513,-0.002123708725,0.6016913545,1.142900888
14.72800075,1.218505363,-0.1551704854,0.4273811781,1.300572132
14.73798775,1.69565234,-0.6070614374,0.2806290022,1.822776202
14.74797475,2.154526183,-0.9185847151,0.1473873297,2.346807188
14.75796175,2.178662466,-0.8760585004,-0.007649254426,2.348213608
14.76794775,1.96518837,-0.9209218472,-0.110148679,2.17306123
14.77793475,1.784357232,-0.3424328291,-0.04507026516,1.817476906
14.78792175,1.96308688,0.2537381691,0.05377457656,1.980147687
14.79790875,1.864873977,0.2952972543,-0.1650515489,1.895309323
14.80789575,1.421357407,-0.2980887151,-0.2488854186,1.473450953
14.81788275,0.7349727881,-0.5940958214,-0.1662316632,0.9595664699
14.82786875,0.009389458895,-0.6415494847,0.2068744898,0.6741446119
14.83785575,-0.46475775,-0.4696290654,0.5788591468,0.8784242353
14.84784275,-0.6894872975,-0.1889282155,0.8451623976,1.106971582
14.85782975,-0.7870244095,0.07519519329,1.090412164,1.346870604
14.86781675,-0.8092906067,0.2336676013,1.266187652,1.520783681
14.87780375,-0.8599494213,0.1994239676,1.349330381,1.612443923
14.88778975,-0.8479472803,-0.1255192548,1.238819175,1.506466933
14.89777675,-0.6051334642,-0.6775069374,0.9901043487,1.34369222
14.90776375,-0.2750468847,-1.288236333,0.6039361006,1.449117819
14.91775075,0.1252650471,-1.706342658,0.3287035668,1.742223474
14.92773775,0.5540448792,-1.825100192,0.2691028976,1.926232803
14.93772475,0.9876879868,-1.888345431,0.3297783581,2.15641596
14.94771125,0.9034701743,-1.464624025,0.6172561309,1.828219632
14.95769725,0.6424681554,-0.9021809363,0.722660233,1.322472527
14.96768425,0.3559264487,-0.4102102447,0.1484679683,0.5630264819
14.97767125,-0.06839992471,-0.03179891288,-0.4184906329,0.4252342065
14.98765825,-0.3806896263,0.01918763816,-1.326762468,1.3804316
14.99764525,-1.171672966,0.09930852592,-2.133486147,2.436071194
15.00763225,-1.666183688,0.2287787443,-2.281093551,2.834059912
15.01761825,-1.498454261,0.2650268036,-2.035482719,2.541415802
15.02760525,-0.9315968165,0.2085087866,-1.413062693,1.705313671
15.03759225,-0.02695825886,-0.03089142501,-0.9558115983,0.9566905661
15.04757925,1.105669815,-0.3952185684,-0.8942032877,1.47590751
15.05756625,1.689513202,-0.6247001481,-1.267840953,2.202754143
15.06755325,1.709854349,-0.3439712316,-1.885390833,2.568387957
15.07754025,1.217032888,0.2655553919,-2.429079855,2.72985671
15.08752625,0.6967048813,0.7699479085,-2.626826841,2.824612668
15.09751325,0.2668931618,0.8468165749,-2.481378229,2.63544459
15.10750025,-0.3374880581,0.5864464939,-2.206357949,2.307776652
15.11748725,-0.8301482096,0.3379719883,-1.955534032,2.151158866
15.12747425,-1.226918337,0.3660509026,-1.575467938,2.030128344
15.13746125,-1.461253544,0.6824057347,-1.210020176,2.016206421
15.14744725,-1.707757684,1.040223758,-0.9039722309,2.194462934
15.15743425,-1.909453003,1.43234681,-0.6277085406,2.468126043
15.16742125,-1.945071609,1.719311782,-0.483715885,2.640704002
15.17740825,-1.738240681,1.786606218,-0.4456040257,2.53219379
15.18739525,-1.510927249,1.531897411,-0.2713736638,2.168698802
15.19738225,-1.174885061,1.135648563,0.01756357402,1.634123938
15.20736825,-0.7932302787,0.6145224845,0.3302217963,1.056361015
15.21735525,-0.3765853925,0.1498050803,0.6878646952,0.7983833408
15.22734225,0.07853914283,-0.04308930159,0.817672298,0.8225649346
15.23732925,0.1916389847,0.0611016494,0.7752636123,0.8009323196
15.24731625,0.1077415265,0.3187960446,0.4907459924,0.5950384724
15.25730325,0.1146497194,0.6974821955,0.2441294396,0.7478135827
15.26728925,0.1214984901,0.9804406554,0.5824673174,1.14686265
15.27727625,0.07693912536,0.9522810495,1.630021291,1.889372445
15.28726325,-0.01649346046,0.2373624569,2.662319732,2.67293085
15.29725025,0.6318840373,-0.7452334821,3.194352622,3.340439949
15.30723725,1.710864894,-1.334823439,3.007563903,3.708672664
15.31722425,2.136848296,-1.10475246,1.054351215,2.626452954
15.32721125,1.0435259,-0.317451185,-1.62356231,1.955933571
15.33719725,0.08669366978,0.787190178,-2.668929425,2.783948355
15.34718425,-1.297456954,1.580385447,-2.320426309,3.092796625
15.35717125,-2.540522523,1.879767566,-2.590620589,4.086452719
15.36715825,-2.912351936,1.418435115,-3.349371665,4.659618281
15.37714525,-2.519099494,0.1623947203,-2.738322426,3.724331351
15.38713225,-1.141143338,-1.460066705,-1.782156925,2.571008792
15.39711825,1.500363961,-2.184256643,-1.154698792,2.890570601
15.40710525,3.319442106,-2.258796363,-0.8422944845,4.102476924
15.41709225,2.418933474,-1.544505177,-0.5662953807,2.925307822
15.42707925,0.1409681833,-0.877342549,-0.5815535438,1.061982345
15.43706625,-1.106655071,-0.6960566443,-0.558094003,1.421495415
15.44705325,-1.5233653,-0.7974245596,-0.004230460525,1.719460864
15.45703925,-1.489995094,-0.6259280634,0.3410009922,1.651712141
15.46702625,-1.443719937,-0.2646870804,0.3570999849,1.510598195
15.47701325,-1.261188137,-0.08780412912,0.2627640042,1.291259077
15.48700025,-1.121007573,0.148069042,0.2013892899,1.148538231
15.49698725,-0.8774732342,0.4738291204,-0.009637307748,0.9972793941
15.50697425,0.05937979057,0.7405329055,-0.4192763525,0.853057796
15.51696125,0.758280009,0.5984426415,-1.167950994,1.51566213
15.52694725,1.014998358,0.166087237,-1.621197842,1.91991903
15.53693425,1.08246821,-0.06837558568,-1.448982723,1.809962314
15.54692125,0.860877813,-0.1085026878,-1.029121576,1.346096082
15.55690825,0.3906744048,-0.1269927531,-0.5315037167,0.6717513311
15.56689525,0.3196430138,-0.09055582881,-0.1139919808,0.351235229
15.57688225,0.3634189247,-0.3655749393,0.2548568145,0.5750394307
15.58686825,-0.2321053715,-0.4558267128,0.4065533229,0.6534037802
15.59685525,-0.2997416499,-0.2349060416,0.335875725,0.5077779118
15.60684225,-0.445695827,0.01271593988,0.1377878827,0.466681868
15.61682925,-0.2666448013,0.1102463275,-0.03904423434,0.2911668852
15.62681625,0.09686241634,0.1374604386,-0.2246670188,0.2806295944
15.63680325,0.3731492762,0.2956878483,-0.3563258135,0.5946761904
15.64678925,0.5609198892,0.2671867651,-0.5706379616,0.8435920654
15.65677625,0.9601920399,0.2614389521,-0.5737726539,1.148709771
15.66676325,0.9449042022,0.3889269644,-0.7702589804,1.279612063
15.67675025,0.9167540981,0.5794543934,-0.1343812948,1.092823775
15.68673725,1.1274868,-0.2436587387,0.5455469745,1.276016288
15.69672425,0.8621463664,-0.1834131217,0.1650353229,0.8967571511
15.70671025,0.8166366099,-0.01742938042,0.4293499357,0.9227895227
15.71669725,0.7769548463,-0.1594120556,0.6657452631,1.035513299
15.72668425,0.6125994815,0.3662532163,0.528023454,0.8878222294
15.73667125,0.3617748338,0.2320216101,0.3544710767,0.557103942
15.74665825,0.6140906677,-0.162487691,0.3309418809,0.71626261
15.75664525,0.8255318329,-0.244876129,0.4433136714,0.9685009741
15.76663225,0.5367194331,-0.1134967947,0.2445586252,0.6006314955
15.77661825,0.30485102,-0.02703752518,0.4828817797,0.5716992088
15.78660525,0.1253838918,0.05334297895,0.5938724577,0.6093037746
15.79659225,-0.03593742594,-0.3003311223,0.75355407,0.8119938534
15.80657925,0.0556149146,-0.3059532201,0.4372653115,0.5365643897
15.81656625,0.4584236075,-0.3619882572,0.7285162926,0.9337685424
15.82655325,0.3836634471,-0.05087369978,0.3187270474,0.5013708255
15.83653925,-0.05755619019,-0.268257975,0.2083082271,0.344481311
15.84652625,-0.18755909,-0.1386257887,0.1712111521,0.2893246967
15.85651325,-0.3602115807,0.1518855196,-0.01093662759,0.3910769793
15.86650025,-0.4333927006,0.2020978993,0.03301571846,0.4793358233
15.87648725,-0.249019466,0.07617460191,0.05170634329,0.2654935223
15.88647425,0.2034260944,-0.03605451643,0.04659119904,0.2117849
15.89646025,0.2200522135,-0.0312299788,-0.04654149771,0.2270779586
15.90644725,-0.03097694054,0.01373218596,-0.0565998735,0.06596733629
15.91643425,-0.03510273591,0.07732065618,-0.07748203933,0.1149528267
15.92642125,0.1763162099,0.1538560313,-0.07821001768,0.2467304017
15.93640825,0.2316931428,0.1682700026,-0.1111725265,0.3071739521
15.946395,0.09223792657,0.1241299564,-0.1187306374,0.1949693448
15.956381,-0.1342400846,-0.03649422705,-0.05286935449,0.1488200173
15.966368,-0.318319058,-0.09970204353,0.04909029901,0.3371607593
15.976355,-0.3036983876,-0.03895181179,0.1349297637,0.3345982597
15.986342,-0.1677259192,0.103552435,0.1714918184,0.2612748257
15.996329,-0.09381316647,0.14911277,0.07958996058,0.1933134506
16.006316,-0.05786331519,0.0803389889,0.02795144042,0.1028775943
16.016303,-0.02795831546,0.04089659572,0.07950400651,0.09367542898
16.026289,0.002813387811,0.02547924221,0.1664561963,0.1684184438
16.036276,-0.07207862735,0.03752509117,0.1855613887,0.2025746528
16.046263,-0.08327502206,-0.01322055459,0.1706620985,0.1903551004
16.05625,0.005497844517,-0.05481881618,0.1799416298,0.1881869258
16.066237,-0.03598625019,-0.04260573685,0.2018265885,0.2093901403
16.076224,-0.06539072827,-0.0214879328,0.2444796878,0.2539842443
16.08621,-0.07157181993,-0.005166599751,0.2250107986,0.2361759485
16.096197,-0.1504196227,-0.05248168409,0.2062225252,0.2605918647
16.106184,-0.1801157306,-0.06849311471,0.2067902899,0.2826574025
16.116171,-0.1288283403,-0.03079377651,0.2348235959,0.2696054879
16.126158,-0.1319590858,-0.02268544257,0.3190340263,0.3459921091
16.136145,-0.1316265254,0.02500503302,0.401916554,0.4236598992
16.146132,-0.09738055274,0.01037471473,0.3911383814,0.4032119047
16.156118,-0.09921204686,0.06269735456,0.3940877169,0.4111923116
16.166105,-0.02137712806,0.1306852698,0.4492696452,0.4683789443
16.176092,0.1018408088,0.1323119652,0.4858562583,0.5137453749
16.186079,0.2466630381,0.09280115962,0.4748798651,0.543107352
16.196066,0.3839369506,0.07211312592,0.4480048925,0.594404129
16.206053,0.4610273726,0.03773266733,0.3648153859,0.589118204
16.216039,0.508710393,0.008988339901,0.3238497931,0.6031133747
16.226026,0.5043100709,0.06539759874,0.3701006842,0.6289515164
16.236013,0.4435557461,0.1622824538,0.3569263226,0.5920081878
16.246,0.3828283185,0.1580502391,0.3223493975,0.5248300045
16.255987,0.3079130606,0.09574640214,0.3183516562,0.4531286831
16.265974,0.2546202216,0.06158170581,0.2709588039,0.3768851776
16.27596,0.2642568715,0.06855275631,0.1885387909,0.3317801233
16.285947,0.2300170384,0.08974482,0.1837622005,0.3077832306
16.295934,0.1402033675,0.104052372,0.2041876942,0.2686568347
16.305921,0.1071763931,0.1577947158,0.2059067573,0.2806840649
16.315908,0.08487964422,0.1601423728,0.1806011957,0.2558650532
16.325895,0.06117035419,0.09235911012,0.1114181095,0.1571178303
16.335881,0.05359353215,0.01386667192,0.09029329796,0.1059123739
16.345868,0.05471605137,0.02072253227,0.1160719085,0.1299844512
16.355855,0.05030111119,0.04612049818,0.1148457565,0.1335921028
16.365842,-0.01311515853,0.04218239844,0.05265007476,0.06872694154
16.375829,0.005477379262,-0.008246912956,0.03455705364,0.03594722817
16.385816,-0.04782072231,-0.0267317158,0.08287142714,0.09934324108
16.395803,0.0337347798,0.001782231331,0.1268857582,0.1313057781
16.405789,0.07106705904,0.0006946492195,0.1339293051,0.1516181657
16.415776,0.09239360869,0.02235975266,0.1214367288,0.1542187297
16.425763,0.08622815832,0.03594283462,0.1027408506,0.1388627561
16.43575,0.05510225996,0.05010829926,0.0821177119,0.1108621636
16.445737,0.04405336127,0.02403614938,0.02692409833,0.05695034844
16.455724,0.03727497652,0.02254920244,-0.01157281379,0.04507571879
16.46571,0.05294142142,0.05902647257,0.01479696393,0.08065896545
16.475697,0.1211605941,0.1013913041,0.0469806236,0.1648249529
16.485684,0.152196153,0.1386006457,0.06555488884,0.2160353013
16.495671,0.1313195466,0.1333480918,0.04696016292,0.1929554192
16.505658,0.167675487,0.143415243,0.03701404909,0.2237253689
16.515645,0.2313700841,0.09855832815,0.04271449963,0.2550889813
16.525631,0.289487607,0.01158450365,0.03325019181,0.2916210737
16.535618,0.2029287887,-0.01779950917,0.03568205108,0.2068093919
16.545605,0.1638452683,0.01366962075,-0.02020680785,0.1656515788
16.555592,0.16345599,0.04385470212,-0.07086766899,0.1834756716
16.565579,0.1549798661,0.08847422004,0.04129771471,0.1831719077
16.575566,0.1642677297,0.1102480817,0.03771103263,0.201396744
16.585553,0.1832352202,0.07562554836,0.01628332615,0.198895742
16.595539,0.1696476066,0.05256354511,0.03591360082,0.1811988505
16.605526,0.1328499091,0.0917919302,0.02656039466,0.1636469106
16.615513,0.1339706741,0.07486950338,-0.002041845422,0.1534853517
16.6255,0.1471722253,0.06395216703,-0.01300420761,0.1609927109
16.635487,0.1606072265,0.0296518153,-0.0007952190447,0.1633234329
16.645474,0.2256608628,-0.05045679331,0.02137858987,0.2322192005
16.65546,0.2753190726,-0.04716247201,0.07142841697,0.2883173759
16.665447,0.266481737,0.02883788288,0.081483289,0.2801493638
16.675434,0.2794261569,0.116801641,0.004252097507,0.3028855903
16.685421,0.2640522189,0.1354314548,-0.0507982707,0.3010742725
16.695408,0.2661240336,0.1030080593,-0.1074940431,0.3049387329
16.705395,0.09521430552,-0.06007955611,-0.1218723464,0.1659162013
16.715382,-0.0209713313,-0.05645720601,-0.03871909261,0.07159874984
16.725368,0.2895203514,0.05747169793,0.07937244415,0.3056550586
16.735355,0.1080033356,0.04297060311,0.09304908156,0.1488936695
16.745342,0.0892736806,0.07482038677,0.1399916983,0.1821141288
16.755329,0.07810769141,-0.01105006814,0.07299430132,0.107475967
16.765316,0.04827081174,-0.06795283198,0.02795203199,0.08791458771
16.775303,0.00256634295,-0.09386827648,-0.03322738538,0.09960872745
16.785289,0.134785776,-0.04461776376,-0.0001929558325,0.1419788276
16.795276,0.05885865748,-0.01124770403,0.1020584714,0.1183502598
16.805263,-0.1293955202,0.01116467357,0.1403752756,0.1912408654
16.81525,-0.15622927,0.05502112985,0.1921324897,0.2536726298
16.825237,-0.04675053567,0.04065861404,0.1528275061,0.1649090116
16.835224,0.04881562606,-0.0107454282,0.0975537765,0.1096137258
16.84521,0.02820375234,-0.03108613729,0.08748019338,0.09702877826
16.855197,-0.07125987098,-0.0004028731585,0.0915399152,0.1160072739
16.865184,-0.1099054348,0.0129632771,0.09696320772,0.1471363817
16.875171,-0.006725905985,0.01168507576,0.1463739341,0.1469935625
16.885158,-0.02263881102,-0.05175136685,0.2049916863,0.2126318678
16.895145,-0.06758884281,-0.05578360677,0.2306767505,0.2467626911
16.905132,-0.1495052643,-0.01514253438,0.2597859442,0.3001164061
16.915118,-0.160021774,0.03807414472,0.23013179,0.2828732038
16.925105,-0.2001943383,0.09216439784,0.1343801254,0.2581280058
16.935092,-0.2212042612,0.113748225,0.1292094326,0.2802945974
16.94507862,-0.2142871512,0.09449568272,0.1524246329,0.2794310039
16.95506563,-0.1163576911,0.05896975458,0.1663766742,0.211418405
16.96505263,-0.09428503677,-0.0177351898,0.1557329875,0.1829124614
16.97503862,-0.06068678945,-0.01444262266,0.159285171,0.1710650212
16.98502563,-0.05438714549,-0.01648330092,0.1242410535,0.1366217412
16.99501263,-2.382740378e-05,-0.01869296372,0.05703023771,0.06001562691
17.00499963,-0.02856511027,-0.02571137667,0.07235695481,0.08193027111
17.01498662,-0.1089989702,0.02948341548,0.05907792807,0.1274372351
17.02497362,-0.1867007187,0.04149067283,0.07250430465,0.2045373034
17.03496063,-0.2467890456,0.03712981939,0.1158672559,0.2751520989
17.04494662,-0.2953792615,0.004340388179,0.1910127479,0.3517863229
17.05493363,-0.335602258,-0.03932369471,0.1682185471,0.3774555711
17.06492063,-0.3362969072,-0.05537137806,0.131245424,0.3652217965
17.07490763,-0.3010079375,-0.07841350079,0.125499959,0.3354171958
17.08489463,-0.2913631015,-0.07968351603,0.1897216827,0.3567018874
17.09488162,-0.2863630012,-0.0353756547,0.3081283844,0.4221354127
17.10486763,-0.1923364113,0.03053182125,0.3558937043,0.4056917746
17.11485462,-0.0002124001086,0.06750668943,0.3075366461,0.3148586777
17.12484162,0.1638484843,0.05022407413,0.2534551638,0.3059547409
17.13482863,0.2534861541,0.05232439399,0.1984141535,0.3261307235
17.14481563,0.3560426621,0.04403011858,0.2121644658,0.4167958603
17.15480263,0.3383025022,0.06213017464,0.2254733133,0.4112747945
17.16478962,0.27998135,0.132650519,0.210505026,0.3745638564
17.17477563,0.2418117495,0.1788172102,0.2183215839,0.3716353466
17.18476263,0.2059520915,0.1465025729,0.2037357044,0.3246344176
17.19474962,0.2078346026,0.09324905634,0.261672256,0.3469336797
17.20473662,0.1838281278,0.06173314869,0.3437303263,0.3946571923
17.21472363,0.1537282696,0.06288972795,0.3683687389,0.4040829451
17.22471063,0.1652453841,0.03816594601,0.3619999516,0.3997582286
17.23469663,0.1719976026,0.04938149035,0.3758946902,0.4163154152
17.24468363,0.17690137,0.06624427557,0.376734935,0.4214399246
17.25467063,0.2641080599,0.06860655069,0.2833958316,0.3934121547
17.26465762,0.4232900275,0.07540043056,0.2571313083,0.500975231
17.27464462,0.2573100869,0.02276905775,0.2397288251,0.3524156926
17.28463163,0.2616348338,0.1004732913,0.2081602925,0.3491108361
17.29461762,0.2991457455,0.1930510873,0.167116347,0.3932998509
17.30460462,0.1966006395,0.1281616116,0.1086395218,0.2586112059
17.31459163,0.175270143,0.05873586595,0.06767099619,0.1968473741
17.32457863,0.1049075273,0.0132696712,0.01184646805,0.1064049447
17.33456563,0.09178082049,0.007921807766,-0.04945926745,0.1045595198
17.34455262,0.0975150387,0.01895842731,-0.0118569839,0.1000459535
17.35453962,0.03103862867,0.09300464272,0.07520514269,0.1235680927
17.36452563,0.03441758841,0.2165592331,0.1514884937,0.2665168579
17.37451262,0.09228601992,0.2018452996,0.08362513323,0.2371737704
17.38449962,0.07258485004,0.1588741118,-0.03777476728,0.1787077975
17.39448663,0.03077945083,0.08256911695,-0.07926076233,0.118521315
17.40447363,-0.05978397936,0.04255135775,-0.08593418956,0.1130018901
17.41446063,0.0514610526,0.1573140746,-0.05677295109,0.1749832163
17.42444663,-0.1178528242,-0.06775461137,-0.07897658765,0.1572172921
17.43443363,-0.2348707391,-0.140531981,-0.1768718415,0.3258790421
17.44442062,0.02803374454,0.02257960796,-0.1117478925,0.1174023893
17.45440762,-0.1343103243,-0.02055822551,-0.08300414979,0.1592218349
17.46439463,-0.2958855573,-0.01357080281,-0.04645612836,0.2998176139
17.47438163,-0.2903952411,0.04554162383,-0.02775731742,0.2952522722
17.48436863,-0.2219468576,0.04098430395,-0.002373969555,0.2257116667
17.49435463,-0.2366544322,0.02963778198,0.02990850806,0.2403710408
17.50434163,-0.006039150506,-0.1174056584,-0.1064298499,0.1585808087
17.51432863,0.2613831112,-0.09431500375,-0.1283838058,0.3061026826
17.52431562,0.179338124,0.03208074868,-0.04757294655,0.1882937131
17.53430262,-0.04263723873,0.01941451013,-0.03816594372,0.06042761447
17.54428963,-0.3322371854,0.007010226846,-0.04652745982,0.3355525222
17.55427562,-0.1776751759,0.09981898785,0.03220881184,0.206324274
17.56426262,0.03587040223,0.1445384932,0.1635863829,0.2212206284
17.57424963,-0.08233040437,0.1432825112,0.2039274931,0.2624778009
17.58423663,-0.200968802,0.06544379175,0.1913267434,0.2850916905
17.59422363,-0.3005185255,-0.03858226776,0.1298397624,0.3296336444
17.60421062,-0.1648258464,-0.1587255925,0.01351759315,0.2292249958
17.61419762,-0.002672981545,-0.2471600515,-0.02489276191,0.2484248085
17.62418362,0.1570220062,-0.1761105341,0.03959384521,0.2392456964
17.63417062,0.188253593,-0.08844790757,0.1269325268,0.243668451
17.64415763,0.04917135604,-0.0004017037153,0.1770747582,0.1837755523
17.65414463,-0.08814458326,0.07261832535,0.1651686394,0.2008072912
17.66413163,-0.1249680816,0.0591059947,0.1189078172,0.1823447532
17.67411863,-0.07100478619,0.04056739748,0.09655508121,0.1265317237
17.68410463,0.06656367972,0.06504793525,0.08847538948,0.1284128182
17.69409163,0.2365785646,0.08209022999,0.06957602818,0.2599019946
17.70407862,0.2845296067,0.04709113598,0.05099825461,0.2928745365
17.71406562,0.2555778493,0.01597050011,0.03220881184,0.258093978
17.72405263,0.1342667625,0.01272237182,0.023880047,0.1369659772
17.73403963,0.06903383598,0.09049618721,0.02839524865,0.1173095075
17.74402663,0.007845574692,0.09258188903,0.04463415423,0.1030784504
17.75401263,-0.1236994551,0.04463413596,0.0489084506,0.1403060862
17.76399963,-0.2169613753,-0.04637075901,0.01563076775,0.2224113454
17.77398663,-0.3053034483,-0.1572801608,0.02384377599,0.3442611947
17.78397362,-0.3568054314,-0.1633636039,0.07533552647,0.3995913219
17.79396062,-0.3286655599,-0.1046996588,0.1127015916,0.3628838899
17.80394763,-0.2144654913,-0.04509314239,0.1732962509,0.2793929653
17.81393362,-0.1395731838,-0.009611068368,0.1554037893,0.2091013725
17.82392063,-0.04597592577,0.0700818032,0.08304566503,0.1179907936
17.83390763,0.03548163548,0.06418839455,0.04967092752,0.08857932881
17.84389463,0.096179827,0.05822774291,0.112981052,0.1593918043
17.85388162,0.1471632352,0.04886868954,0.1927499557,0.2473817132
17.86386862,0.2209854291,0.1134465086,0.239668014,0.345174488
17.87385563,0.3776946093,0.1344795281,0.2189524984,0.4568130449
17.88384162,0.4421876438,0.09793267608,0.2011301851,0.4955543086
17.89382862,0.418603338,0.045933972,0.188666242,0.4614473266
17.90381563,0.4149176187,-0.02051086307,0.1778500807,0.4518937674
17.91380263,0.2845969228,-0.01048698127,0.1802053392,0.337015355
17.92378963,0.1596216052,0.05659870863,0.21065413,0.2702917556
17.93377662,0.1069751027,0.06099932313,0.2459233654,0.2750325284
17.94376275,0.1554912782,-0.002734158039,0.1995970452,0.25302963
17.95374975,0.1518622769,-0.007103782296,0.1251877177,0.1969380094
17.96373675,0.1269290185,-0.006261198521,0.1380235255,0.1876184211
17.97372375,0.06755419806,0.003397232294,0.1633408181,0.1767917807
17.98371075,-0.009721726924,0.04104277611,0.1455453837,0.1515337591
17.99369775,-0.06483246535,0.04456572354,0.1429035934,0.1631281376
18.00368475,-0.07500852093,0.08306028306,0.09068212867,0.1440435257
18.01367075,-0.003702749312,0.1105217314,0.05373708129,0.1229489218
18.02365775,0.09150234684,0.06368494928,0.04563633045,0.1204621389
18.03364475,0.03928729579,0.02130023718,0.05748397708,0.07281208234
18.04363175,-0.04913780764,-0.05734247446,0.07969283503,0.1097890317
18.05361875,-0.0551295957,-0.1362705302,0.05521876574,0.157028793
18.06360575,-0.01094920367,-0.1067233801,0.1158076143,0.1578643989
18.07359275,-0.01324445508,-0.06046137929,0.1315822418,0.1454127929
18.08357875,-0.02135666281,0.01262823164,0.07935958028,0.08314759325
18.09356575,-0.0604023955,0.06174250424,0.06576130469,0.1085593635
18.10355275,-0.00227500543,0.1139821136,0.06350662747,0.1304997686
18.11353975,0.1221139826,0.1634963357,0.07403393626,0.2170804005
18.12352675,0.06267118827,0.08231359363,0.05673436403,0.117991498
18.13351375,-0.0003517831117,0.009191238284,0.05407622893,0.05485290465
18.14349975,0.05149957113,-0.02619611084,0.04436049541,0.07284432444
18.15348675,0.08036120832,-0.06121976316,0.04628537139,0.1111220897
18.16347375,0.02045063674,-0.01854210556,0.09674452186,0.1006058683
18.17346075,-0.02427698158,0.08334270358,0.07245987494,0.1130743629
18.18344775,-0.04831590839,0.0891700387,0.02340992172,0.1040852883
18.19343475,-0.1331753797,0.05076903462,0.013369083,0.1431499529
18.20342175,-0.278740717,-0.05857272863,-0.01895669142,0.2854584173
18.21340775,-0.3716348474,-0.05423234046,-0.01153536877,0.3757481487
18.22339475,-0.2451793072,-0.01581262529,0.02948986569,0.2474521852
18.23338175,-0.06154684179,-0.02204341829,0.01362402161,0.06677978727
18.24336875,-0.003412946686,-0.0004093050957,-0.008795372648,0.00944321533
18.25335575,-0.06528145842,-0.007782059312,-0.05118066947,0.08331680616
18.26334275,-0.09321894318,0.004497093558,-0.1160040808,0.1488856675
18.27332875,-0.1548583902,0.02789940476,-0.05720097184,0.1674259508
18.28331575,-0.1012829845,0.06751312137,-0.02052955588,0.1234411891
18.29330275,-0.02250790648,0.0581651777,-0.03059496204,0.06946830539
18.30328975,-0.0196733956,0.05521057963,-0.03638020635,0.06898383877
18.31327675,-0.005963721424,0.02928344071,-0.02527751327,0.03914126403
18.32326375,-0.01099897809,-0.005904518366,0.04270575165,0.04449294416
18.33325075,-0.02955109701,0.001640728712,0.1297310042,0.1330642431
18.34323675,-0.02020841584,0.04125327587,0.151903646,0.1586976071
18.35322375,-0.02324326694,0.05559766531,0.113428967,0.1284425179
18.36321075,-0.005299770087,0.02101489305,0.0737006267,0.07682119284
18.37319775,0.02520639651,0.0193215394,0.1155690571,0.1198536243
18.38318475,-0.0023684147,-0.02594701946,0.1899093783,0.1916883647
18.39317175,0.02261417963,-0.05794181406,0.2173690724,0.2260928318
18.40315775,-0.001392806768,-0.06581216633,0.2464040248,0.2550453382
18.41314475,-0.07086269885,-0.006747686863,0.1923792605,0.2051263835
18.42313175,0.08027452335,0.04243675232,0.1429468811,0.169347831
18.43311875,0.108413664,-0.01121671379,0.1495425403,0.185046774
18.44310575,0.01491537005,0.08231359363,0.15275617,0.1741621183
18.45309275,-0.01229640216,0.06941229701,0.1144756369,0.1344393541
18.46307975,0.03844770871,0.01681600749,0.07521040519,0.08612554477
18.47306575,0.06473211251,-0.0229684478,0.05736938079,0.08949325023
18.48305275,0.0447568544,0.02645982027,0.1171173998,0.1281397028
18.49303975,0.03991894126,0.06806802213,0.130850143,0.1528022822
18.50302675,0.04330652565,0.05902705729,0.1063842416,0.1291404488
18.51301375,-0.0111137297,0.05751496732,0.1174694022,0.1312651778
18.52300075,0.08739942871,0.07551094294,0.1349350353,0.177617641
18.53298675,0.0239174509,0.07491686583,0.1272704959,0.149607354
18.54297375,-0.1107355933,0.01598394871,0.1256777326,0.1682639317
18.55296075,-0.1159910707,0.01995069981,0.07841583967,0.1414249017
18.56294775,-0.0450804247,0.005138533115,0.04736595511,0.06559102772
18.57293475,-0.05591787346,0.07311066091,0.08769421061,0.1271308455
18.58292175,-0.06926567808,0.05756817698,0.1254391662,0.1544241354
18.59290875,-0.1514451512,0.04366291344,0.02464719255,0.1595292071
18.60289475,-0.05414485149,0.05258342564,-0.00146296422,0.07549054152
18.61288175,-0.1240954578,-0.05808039308,0.001026771069,0.1370184986
18.62286875,0.06873752832,0.02713692784,0.07656576237,0.1064122954
18.63285575,0.09238279134,-0.01773577452,0.08010215839,0.1235536062
18.64284275,0.03413706824,0.09461438119,0.0949283584,0.1383062319
18.65282975,0.03564652696,0.09204511464,0.1056287813,0.1445697667
18.66281675,0.04682939999,0.06208164275,0.1049879356,0.1306506399
18.67280275,-0.007802012935,0.03627963424,0.1220466026,0.1275635389
18.68278975,-0.03938611373,0.05544797659,0.1101030525,0.1294157109
18.69277675,-0.02222044274,-0.01884908438,0.125233326,0.1285784663
18.70276375,0.02699564449,-0.06337563157,0.1661252622,0.1798411472
18.71275075,0.08608884841,-0.02524710774,0.2015827596,0.2206452248
18.72273775,0.1136863907,0.02792396307,0.1355373077,0.179094123
18.73272375,0.111783926,0.08875488639,0.09804729978,0.1731656691
18.74271075,0.09208896875,0.1024531585,0.08718313655,0.1630273816
18.75269775,0.03234080359,0.06140687406,0.08247495851,0.1077907721
18.76268475,0.04109364688,0.02966935694,0.1068917616,0.1182996503
18.77267175,0.1075022292,0.04461016238,0.1344812822,0.1778539039
18.78265875,0.1205783576,0.0571185261,0.1135798069,0.1752199728
