Time (ms),Linear Acceleration x (m/s^2),Linear Acceleration y (m/s^2),Linear Acceleration z (m/s^2),Absolute acceleration (m/s^2)
4.631541669,-0.9850590786,-0.5746685936,-1.730892777,2.072818175
14.66854149,-0.7227684796,-0.5039969525,-1.61553306,1.840204953
24.704541550000002,-0.4753233764,-0.3650235468,-0.9754588276,1.144855636
34.741541600000005,0.05001708269,-0.4266863827,-0.1026057708,0.4416909802
44.778541659999995,0.322773613,-0.3224530394,0.5510509586,0.7154131163
54.81454148,0.2247815877,-0.1258822207,1.03185113,1.06352708
64.85154154,0.2559504631,-0.08122937366,1.206198143,1.235727645
74.8885416,0.2276870692,-0.007802232206,0.7012343538,0.7373139733
84.92454165000001,0.1623242614,0.07212993667,-0.2109517533,0.2757762423
94.96154147,0.04795973986,0.06887435317,-1.040604411,1.043983407
104.9975415,-0.1392195734,0.05225481212,-1.516154952,1.523429845
115.0345416,-0.2565293375,-0.001866577417,-1.615065867,1.635312979
125.0715416,-0.2151865992,-0.1124523358,-1.457538369,1.477622719
135.10754150000002,-0.03177376986,-0.2087589012,-1.119995567,1.139728003
145.1445415,0.1685436523,-0.2554885331,-0.5495809686,0.6290632674
155.1805416,0.2952852675,-0.1724067615,-0.04781677544,0.3452592137
165.21754159999998,0.3818775612,0.003554522395,0.356732195,0.5225906288
175.2545414,0.5223522395,0.152112684,0.678692168,0.8698351508
185.2905415,0.5991007456,0.2170169239,0.7140982282,0.9570550288
195.3275416,0.5650787213,0.1745197991,0.4919262528,0.7692610479
205.3635416,0.4888362917,0.1641295892,0.1786213285,0.5457151465
215.4005417,0.2828277746,0.03475570366,-0.1261460763,0.3116285314
225.4375415,0.1035334316,-0.05271111421,-0.3513568497,0.3700665735
235.47354149999998,-0.02282548338,-0.01675680444,-0.2507555044,0.2523491949
245.51054159999998,-0.08170811445,0.2316174214,0.3464352483,0.4246648409
255.5465417,0.2457830322,0.6351988238,1.628544284,1.765231806
265.5845415,1.159470412,0.7612425739,2.969980339,3.277902547
275.62154150000003,2.369834989,0.3853790932,3.315117506,4.09324309
285.6575416,2.98682032,-0.5199615323,2.225993484,3.761183672
295.6945417,2.88657127,-1.135976592,0.4355397981,3.132480076
305.7305415,2.205510103,-1.061790262,-0.8509914869,2.591497614
315.76754150000005,1.201087969,-0.8545018628,-1.230300366,1.920006441
325.8045416,0.3368923,-0.6902969907,-1.09014787,1.33357742
335.8405416,-0.208101528,-0.4167479434,-0.572363475,0.7379600543
345.8775415,-0.2868170375,-0.07913782462,0.2750881076,0.4052163314
355.9135415,0.4092814144,0.3256132402,0.9534604329,1.087484278
365.9505416,1.618716284,0.5058154365,1.049665841,1.994464851
375.9875416,2.455388232,0.2722693476,0.8374423188,2.608519045
386.0235414,2.925524544,0.1069513484,0.5315317833,2.975341742
396.0605415,2.289225566,-0.0972951103,-0.2334500849,2.303154136
406.0975416,1.437908097,-0.2458119028,-0.6500004655,1.597029678
416.1335416,1.142803801,0.03626758349,-0.8821875519,1.444150526
426.1705414,0.6877611995,-0.2757188029,-1.478901756,1.654142295
436.2065415,0.4402400824,-0.3753842282,-1.484314524,1.593083254
446.2435415,0.0510599336,-0.2134963153,-0.5636867917,0.6049219723
456.2805416,0.2392265493,0.2271499293,0.9784619576,1.032576503
466.31654169999996,0.8167288497,0.3746602698,1.749731922,1.966971817
476.3535415,1.223323176,0.2808610636,1.776202852,2.174925079
486.3895415,1.219591191,0.1517832664,1.560891414,1.986661229
496.4265416,1.131499963,-0.06801985569,1.240045336,1.680068839
506.4635415999999,0.8035676444,-0.2998914848,0.8060322458,1.177006305
516.4995415,0.3468252575,-0.1328475702,0.9394212681,1.010172537
526.5365415,0.397382623,0.09312904224,1.393307875,1.451858396
536.5725416,0.7429834735,0.09447667927,2.000317272,2.135935269
546.6095416,0.8658486772,0.2356524387,2.412043115,2.573553573
556.6465415,0.8160970581,0.5052310073,2.314040272,2.505205612
566.6825415,0.450275951,0.785164264,1.635850965,1.869556026
576.7195416000001,0.4283722812,0.8244245164,0.7684001505,1.20566056
586.7555416,0.08120905459,0.5686563402,0.2950855851,0.645786688
596.7925414,-0.2165832067,0.2107131869,0.297292909,0.4239002315
606.8295415,-0.6040132838,-0.2090671957,0.3769091821,0.7420253843
616.8655415999999,-0.5554305232,-0.5115667579,0.1577496922,0.7714198463
626.9025416000001,-0.2333840114,-0.6831011148,-0.2659711289,0.769308697
636.9385417,0.1657054138,-0.3745096309,-0.2951060504,0.5047804759
646.9755415000001,1.364848891,0.3554944856,-0.5106841207,1.499995699
657.0125415,0.5028307253,0.3893318841,-0.5174429172,0.8198568332
667.0485416,-0.2275730485,0.06140892059,-0.9347709775,0.9640318088
677.0855417,-0.1744572338,-0.5715939814,-1.281151847,1.413684923
687.1225415,0.03731634557,-1.35668384,-1.508538954,2.029205097
697.1585415,0.1286869839,-1.958779529,-1.661730741,2.571911087
707.1955416,-0.3386739466,-2.363540753,-1.298687062,2.718016376
717.2315416,-1.723377059,-2.917130865,-0.5463217306,3.431930711
727.2685415,-2.20334254,-3.244779595,0.3073407644,3.934179878
737.3045415,-1.042402138,-3.028477054,0.879171558,3.321327764
747.3415416,0.6954169589,-2.708727913,1.259632924,3.067162656
757.3785416,2.087900669,-2.557894308,1.365993192,3.573246408
767.4145414,2.886122788,-2.24040804,0.3219675744,3.667805346
777.4515415,3.058538175,-1.931758084,-0.265954172,3.627268488
787.4885416000001,1.963232768,-1.003031154,0.02151950777,2.204726171
797.5245416,1.238383557,-0.5501014439,0.1272149473,1.361025009
807.5615414,1.590244729,-0.9035227261,-0.2314708024,1.843586274
817.5975414999999,1.27222461,-1.0489948,-0.6352877015,1.767069895
827.6345416,0.6225457415,-1.187628921,-1.136793448,1.757932023
837.6715416000001,-0.1260335174,-1.240247942,-1.429116223,1.896436813
847.7075417,-0.4099161297,-1.128117349,-1.453527179,1.885052054
857.7445415,-0.5404730532,-0.7397803688,-1.279505271,1.573696239
867.7805414999999,-1.028698896,-0.5209164557,-1.098952022,1.592881326
877.8175416,-1.04449281,-0.509311633,-1.011725013,1.540763146
887.8545417,-0.8175068218,-0.6635768963,-1.071464846,1.502227885
897.8905415,-0.53237349,-0.9353874933,-1.240845235,1.642579737
907.9275415,-0.3465115544,-1.115335116,-0.992976501,1.532985653
917.9635416000001,-0.04177894056,-1.170943745,-0.8092482144,1.423986449
928.0005416,0.3284829806,-0.975778378,-0.5253372431,1.155864927
938.0375415,0.8371537587,-0.6460902131,-0.09625335574,1.061849183
948.0735415,1.081823481,-0.6280336457,0.1806818873,1.263888543
958.1105416,1.332468327,-0.5972976105,0.4075205255,1.516017565
968.1465416,1.263922587,-0.6815363999,0.6324588186,1.569074991
978.1835414,0.834756985,-1.073313809,0.8868290716,1.62335688
988.2205415000001,0.7055724031,-1.355163271,1.11947341,1.894075137
998.2565416,0.3153172436,-1.481684154,1.276200424,1.98078278
1008.2935420000001,-0.7295290303,-1.170117241,1.188484588,1.820407257
1018.330541,-0.977908811,-0.9669998069,0.6671216977,1.52854363
1028.366541,-1.005670806,-0.853595252,-0.02999797046,1.319431129
1038.403542,-1.268667603,-0.6694075204,-0.6065147227,1.557396553
1048.4395419999998,-1.564612875,-0.5983758736,-0.9460987884,1.923842522
1058.4765419999999,-1.701700846,-0.5028857988,-1.23119499,2.159750217
1068.513541,-1.729216673,-0.4681612315,-1.359678199,2.249019797
1078.549542,-1.808602127,-0.5968297967,-0.9869035828,2.145046886
1088.586542,-1.918547177,-0.688238917,-0.2105605745,2.04910513
1098.622542,-1.999154261,-0.5690226318,0.3840123796,2.113733669
1108.659541,-2.111427233,-0.5282208706,0.404106921,2.213694797
1118.696542,-1.885743128,-0.0715894438,0.5121172732,1.955355797
1128.732542,-1.680810206,0.3761043859,0.1718941069,1.730931842
1138.769542,-1.355219258,0.917705367,-0.2571219528,1.656778222
1148.805541,-1.393503172,1.482671749,-0.2179526246,2.046379718
1158.8425419999999,-1.301220514,1.58451095,-0.4216292721,2.093232194
1168.879542,-1.209056409,1.378897558,-0.7382881594,1.976928244
1178.915542,-1.352844265,1.160923299,-0.6644120979,1.902465229
1188.9525409999999,-1.290850477,0.8480147425,-0.4128110862,1.598698518
1198.9885410000002,-1.174129089,0.7746506048,0.02989155114,1.406967015
1209.025542,-0.9805150612,0.8093205006,0.2896049899,1.303948047
1219.0625420000001,-0.776770659,0.8939071262,0.3712280273,1.241069239
1229.098542,-0.6645525773,0.9717367094,0.424699645,1.25150795
1239.135541,-0.5724281232,0.9908467989,0.2815960586,1.178451389
1249.171542,-0.6406903095,0.9015736299,-0.03991660237,1.106757615
1259.207792,-0.8447358432,0.7886778559,-0.3614520675,1.210883563
1269.244791,-1.044006395,0.572849342,-0.4965572476,1.290222779
1279.280792,-1.184508043,0.3712361769,-0.322457571,1.282518806
1289.317792,-1.259696804,0.2558047213,-0.1052873039,1.289712181
1299.353792,-1.198303379,0.2180936338,0.06057949305,1.219494033
1309.390791,-1.006668999,0.2689031421,0.1880324221,1.058795337
1319.427792,-0.9162059216,0.3176013488,0.2202190053,0.9943843914
1329.463792,-1.051316072,0.1509236526,0.1155573535,1.068361799
1339.500792,-1.176887513,0.06709081535,-0.03881615639,1.179437192
1349.536791,-1.176629943,0.1036210485,-0.280339492,1.213995707
1359.573792,-1.138847136,0.1094060095,-0.2802055907,1.177903921
1369.610792,-1.07018416,0.09765590178,0.0139473635,1.074721052
1379.646792,-0.8955029775,0.1355025898,0.4503297454,1.011475859
1389.683792,-0.6153281578,0.3054455722,0.8102258688,1.06225783
1399.720791,-0.3570903004,0.4459938157,0.9336997676,1.094632003
1409.7567920000001,-0.1796737542,0.4565694554,0.9362918383,1.057062312
1419.7937920000002,-0.1331212564,0.4131025333,0.8345918012,0.9407010399
1429.829792,-0.1484695397,0.3975728036,0.626101141,0.7563795193
1439.866791,-0.1271438671,0.3747626327,0.3332825214,0.5173875074
1449.903792,-0.1035115045,0.3576171711,0.02147448421,0.3729153069
1459.939792,-0.1568035031,0.2863277534,-0.1115800774,0.344994253
1469.976792,-0.2666942468,0.1891353166,-0.169907223,0.3684649965
1480.012791,-0.3500524089,0.04975768559,-0.2759716219,0.4485229675
1490.049792,-0.3876341816,-0.1066777535,-0.3972855592,0.5652222725
1500.086792,-0.3842268628,-0.2261555007,-0.4214866,0.6135369154
1510.122792,-0.2927009809,-0.3541279548,-0.2693215835,0.5325547746
1520.159791,-0.2642949149,-0.5377164199,-0.08113245606,0.6046265175
1530.195792,-0.1896406439,-0.7444561679,0.1706083041,0.7869471095
1540.232792,-0.2117647903,-0.894083639,0.5207091719,1.056109806
1550.2697919999998,-0.2031350309,-0.9976914033,0.6847580695,1.227006761
1560.305791,-0.1426530585,-1.039088228,0.6614013666,1.2399621
1570.342791,-0.08878538327,-1.090315977,0.5787182289,1.237572851
1580.378792,-0.05424860302,-1.13321751,0.4769100183,1.230677863
1590.415792,-0.03131079828,-1.105269939,0.3773003608,1.168313984
1600.452792,-0.01897392243,-1.112994988,0.3121641326,1.156098741
1610.488791,-0.05398595341,-1.191084772,0.3497395098,1.242543819
1620.525792,-0.1215162053,-1.274771073,0.3598727345,1.330156329
1630.561792,-0.09155805071,-1.258288503,0.3210940003,1.301834932
1640.598792,0.002977146395,-1.167213368,0.2981647289,1.20469835
1650.635791,0.05778853479,-1.102066249,0.2528593326,1.132178155
1660.671792,0.105500371,-1.041522863,0.1163578373,1.053299268
1670.7087920000001,0.1050411361,-0.9608236854,-0.1149773097,0.973363024
1680.745792,0.1163581114,-0.9029565695,-0.2903259516,0.9555934986
1690.781791,0.01719990461,-0.8822345489,-0.3233650589,0.9397864636
1700.818792,-0.09756502326,-0.8664826615,-0.3872377038,0.9540776571
1710.8547919999999,-0.1098090746,-0.8278191175,-0.5272685784,0.9876004647
1720.891792,-0.08697192416,-0.7753482507,-0.5340969568,0.9455096958
1730.928791,-0.1055426811,-0.7794451024,-0.4891663671,0.926260039
1740.964792,-0.109093019,-0.8357286461,-0.4165305001,0.9401283498
1751.001792,-0.1083544061,-0.8248972638,-0.2968274707,0.8833474517
1761.037792,-0.1413969395,-0.8670451637,-0.2141308844,0.9042192466
1771.074791,-0.1733320834,-0.9785698387,-0.1865127307,1.011152777
1781.111791,-0.2454370597,-1.030171809,-0.1843182707,1.074926291
1791.147792,-0.312537258,-1.009271156,-0.2813481367,1.093373028
1801.184792,-0.4002538251,-1.002480419,-0.4394533396,1.165456714
1811.220792,-0.4078513682,-0.9166317451,-0.6256169915,1.182350673
1821.257791,-0.346301347,-0.7523537828,-0.7912458068,1.145439114
1831.294792,-0.2604311479,-0.6109796931,-0.8104287672,1.047814561
1841.330792,-0.2785082719,-0.5328258818,-0.6588841403,0.8919633334
1851.367792,-0.3304913895,-0.5487932025,-0.4328448164,0.7731449882
1861.4037910000002,-0.333890376,-0.5413227998,-0.2388798094,0.6793943774
1871.440792,-0.3176389172,-0.5318106224,-0.09418636501,0.6265685048
1881.4777920000001,-0.2485402136,-0.4995945473,0.02552894354,0.5585863196
1891.513792,-0.1459943768,-0.4365239576,0.1098036933,0.4732064821
1901.5507910000001,-0.07454401447,-0.330816714,0.03373317182,0.3407850279
1911.586792,-0.06554726919,-0.2684648202,-0.1714812934,0.3252316685
1921.623792,-0.05262415515,-0.1978484536,-0.3392905354,0.3962718508
1931.660792,-0.03360890022,-0.1165291242,-0.4246546215,0.4416334934
1941.696791,0.09505447553,0.01902294768,-0.3976194352,0.4092657341
1951.733792,0.16953386,0.1718833261,-0.2865509892,0.3746959792
1961.7697919999998,0.2785550131,0.2273796701,-0.1220044935,0.3797097656
1971.806792,0.2943664507,0.2259108495,0.1633665276,0.4054330297
1981.8437920000001,0.2401813813,0.1801365613,0.4271250701,0.5220843822
1991.8797909999998,0.2279045856,0.1249945037,0.5847180569,0.6398900938
2001.9167919999998,0.155854098,0.1557949315,0.658401745,0.6943021088
2011.9527920000003,0.1741871473,0.1512877697,0.5927264035,0.6360453922
2021.9897919999999,0.1872766694,0.2259643698,0.4537953901,0.5404282593
2032.0267909999998,0.221925972,0.369907726,0.3165156305,0.5350373886
2042.062792,0.30988127,0.515858066,0.2210873169,0.6411049426
2052.099792,0.3950552849,0.6216579149,0.1716456002,0.7562998436
2062.136792,0.4123073485,0.6509363124,0.11472471,0.7790232291
2072.172791,0.3813491922,0.6039688085,0.07268439889,0.7179753128
2082.209792,0.3318788607,0.5013377119,0.09048215389,0.6080050162
2092.2457919999997,0.2435993895,0.4286959977,0.1113812721,0.5054964973
2102.282792,0.2290885189,0.3752672839,0.0973666656,0.4503191662
2112.319791,0.2064973626,0.3146423288,0.1497887081,0.405064949
2122.355792,0.1990681645,0.2615700576,0.2191203135,0.3950452391
2132.392792,0.2007792426,0.1874956842,0.2868070972,0.3971463796
2142.428792,0.2824903537,0.1772406181,0.3045054495,0.4515956216
2152.465791,0.3905719689,0.256679885,0.2867433625,0.5483181396
2162.502791,0.4508558486,0.3178498189,0.2706664431,0.614458971
2172.5387920000003,0.5127607958,0.3496555657,0.249242245,0.6688081527
2182.575792,0.4964771042,0.3900993677,0.2357907254,0.6739913188
2192.611792,0.5128924678,0.4243390911,0.2870813316,0.7249400242
2202.648791,0.483322075,0.4272186986,0.4103447306,0.76452524
2212.6857919999998,0.4051339113,0.401857022,0.5186363339,0.7711071256
2222.7217920000003,0.3282709094,0.4414913866,0.5233287245,0.7593084935
2232.7587919999996,0.2412649069,0.4971685375,0.417513417,0.6926057777
2242.7947910000003,0.1436063008,0.5329054405,0.3064087182,0.6312664103
2252.831792,0.1000476688,0.5573969418,0.1902847695,0.5974187646
2262.868542,0.0331414336,0.5785642279,0.00248799026,0.5795179984
2272.904542,-0.03663635094,0.6114928959,-0.1653896642,0.6345230689
2282.941542,-0.1206240207,0.5991729587,-0.308259362,0.684530659
2292.9775409999997,-0.1967763849,0.5758813061,-0.4200049156,0.7394351584
2303.014542,-0.2668596316,0.5888263837,-0.5418427634,0.8435189111
2313.051542,-0.3412089338,0.6028613093,-0.6032794583,0.9185920746
2323.087542,-0.4392884481,0.6048420901,-0.5364551389,0.9201045651
2333.124541,-0.5214705525,0.6130088597,-0.4431762618,0.9187581826
2343.161542,-0.5784840114,0.6154485373,-0.4239207959,0.9450552866
2353.1975420000003,-0.6471834232,0.5910261793,-0.3457335824,0.9421730403
2363.2345419999997,-0.6993205601,0.5484729213,-0.2250616693,0.9168012577
2373.270542,-0.71134207,0.521779724,-0.1915828514,0.9027544572
2383.307541,-0.7027457128,0.4965778956,-0.1615936518,0.8755304973
2393.344542,-0.6806497427,0.4851338348,-0.07531798482,0.8392328096
2403.380542,-0.671097585,0.4552987824,-0.02132947326,0.8112483567
2413.417542,-0.5959044017,0.4289886143,0.04472769141,0.7356180079
2423.4535410000003,-0.5152008755,0.3983163502,0.1382042044,0.665723861
2433.490542,-0.418413742,0.3976670535,0.2548368609,0.6309920527
2443.527542,-0.3556703407,0.3493289256,0.3010509145,0.5823776633
2453.563542,-0.342343586,0.3108682069,0.2389072913,0.5204948288
2463.600541,-0.3355089584,0.304459622,0.1392052478,0.4739620487
2473.6365419999997,-0.2811886173,0.2992550153,0.01037003696,0.4107653106
2483.673542,-0.1910765008,0.2926638146,-0.07408012927,0.3572816859
2493.7105420000003,-0.1278830465,0.239855125,-0.08135231137,0.2837300709
2503.746541,-0.07115705134,0.1697956873,-0.126312722,0.2232684598
2513.783542,-0.02824746028,0.09469273388,-0.1956718093,0.219207869
2523.819542,-0.04713608645,0.04900894962,-0.2837864256,0.2918191617
2533.856542,-0.06105892818,-0.02868665926,-0.3951793921,0.4008963321
2543.893541,-0.07009623852,-0.1349035243,-0.4198616588,0.4465380791
2553.929541,-0.08380803231,-0.1953607374,-0.4909614623,0.5350072536
2563.966542,-0.06096519001,-0.2486622743,-0.5232211357,0.5825032514
2574.002542,-0.02268102061,-0.2647432137,-0.5228966153,0.58653582
2584.039542,0.04381658558,-0.2655871861,-0.4867584836,0.5562286113
2594.0765410000004,0.08582331173,-0.3148539249,-0.4571277183,0.5616621633
2604.1125420000003,0.0880111571,-0.3753278757,-0.4436674279,0.5877565522
2614.1495419999997,0.1191447665,-0.4022302571,-0.441119796,0.6087457019
2624.185542,0.1538779949,-0.3848841264,-0.4616867924,0.6204586387
2634.222541,0.2346208802,-0.3144172841,-0.5316276777,0.6607065715
2644.259542,0.3179121283,-0.2109790159,-0.5305997372,0.6535413893
2654.295542,0.3120403178,-0.1818553504,-0.5123441452,0.6268469123
2664.332542,0.2657678651,-0.2146011467,-0.4927378464,0.5995638378
2674.369541,0.2170792698,-0.2285599123,-0.4707353586,0.5665287466
2684.405542,0.1798581242,-0.2454120263,-0.4252106917,0.5228576669
2694.442542,0.1333751352,-0.2595699627,-0.3510206348,0.456487654
2704.478542,0.06353895161,-0.2801109389,-0.2720557415,0.3956180772
2714.5155409999998,0.01828917693,-0.330473519,-0.196037845,0.3846791876
2724.552542,-0.02231100149,-0.3614552104,-0.1872301841,0.4076797661
2734.588542,-0.08682906937,-0.3614115755,-0.247833066,0.4467424793
2744.625542,-0.1599342485,-0.3630168555,-0.3009901035,0.4979510454
2754.661542,-0.1406070446,-0.2996130111,-0.2592222726,0.4203980067
2764.698541,-0.06021038756,-0.2035480088,-0.1580730432,0.2646585907
2774.7355420000004,0.01351470608,-0.1354183351,-0.07262534201,0.1542569709
2784.771542,0.02280070581,-0.1042094428,-0.01437128663,0.1076383483
2794.808542,0.03068706483,-0.1080313657,0.01955952108,0.1139958192
2804.844541,0.04120912939,-0.0612034275,0.02706149876,0.07858992683
2814.881542,0.05709553923,-0.0669511674,0.007276859879,0.0882910647
2824.918542,0.03590398718,-0.03224922158,0.03268242717,0.05828592998
2834.9545420000004,0.01675888751,-0.05259219646,0.01359419167,0.05684717659
2844.9915410000003,0.01065073986,-0.03333358772,-0.03307945311,0.04815409171
2855.0275420000003,0.04843570322,-0.005508734956,-0.02046934783,0.05287114249
2865.0645419999996,0.06462138087,0.008954535685,0.03153403401,0.07246034692
2875.101542,0.0288656937,0.004570183754,-0.0218972379,0.03651854159
2885.137541,0.02743900962,0.01117534474,-0.09352972269,0.09811012489
2895.1745419999997,0.01342615731,0.002895614281,-0.1129044718,0.1137368279
2905.210542,-0.05858274199,-0.01864750162,-0.1496255708,0.1617636498
2915.247542,-0.1022682403,-0.06434436902,-0.1884703785,0.2238751312
2925.284541,-0.1388902656,-0.05381857686,-0.2507151586,0.2916248203
2935.320541,-0.134671536,-0.03911410857,-0.3238959861,0.3529517614
2945.357542,-0.1661204199,-0.03534473754,-0.4293651384,0.4617354941
2955.393542,-0.1877785798,-0.02632920809,-0.4435101378,0.482343513
2965.430542,-0.2275294867,-0.07272006691,-0.3971294385,0.4634324831
2975.467541,-0.2659667435,-0.1042808154,-0.2562711829,0.383780818
2985.503542,-0.2529425823,-0.1438512991,-0.1064473915,0.3098454346
2995.540542,-0.2148284207,-0.1401909056,0.008357425332,0.2566604506
3005.576542,-0.1676924439,-0.1224966829,0.08955186188,0.2261542151
3015.613541,-0.09111471299,-0.09482663512,0.1361658651,0.1893016758
3025.6505420000003,0.01726543911,-0.07095303833,0.1511090094,0.1678283699
3035.686542,0.1372912348,-0.006468884312,0.1507611001,0.2040089187
3045.723542,0.2994540765,0.08728635818,0.1342544103,0.3395819473
3055.760541,0.3836152075,0.1624287073,0.07763874471,0.4237587605
3065.796542,0.447245595,0.2146922171,-0.0103928411,0.4962150557
3075.833542,0.536377846,0.2749086346,-0.1048727363,0.6117795697
3085.8695420000004,0.580368167,0.2992075067,-0.1516744351,0.6703413128
3095.9065410000003,0.6211448217,0.3457041636,-0.1248035556,0.7217396939
3105.943542,0.6002990594,0.3905847962,-0.1238089442,0.7268040303
3115.979542,0.52778116,0.4006378045,-0.1311711735,0.6754772238
3126.016542,0.4434143896,0.4237772102,-0.07135298789,0.6174906426
3136.052542,0.3326677597,0.4372098726,-0.02399463415,0.5499054951
3146.089541,0.1992282321,0.4656334437,0.03039908946,0.5073760902
3156.126542,0.08806089498,0.4951854908,0.1245731753,0.5181523594
3166.162542,-0.0357878834,0.5296196707,0.1410389346,0.549244708
3176.199542,-0.2054624603,0.5516645874,0.04605910242,0.5904829214
3186.235541,-0.3577276835,0.4979976361,-0.0325584662,0.6140283339
3196.272542,-0.4945905367,0.4789453975,-0.06462576628,0.6915092063
3206.309542,-0.6737412574,0.4536106181,-0.1821489537,0.832386999
3216.345542,-0.8339986742,0.3915261248,-0.3206928813,0.9755462158
3226.382541,-0.8997300028,0.4806668544,-0.3680962586,1.084458187
3236.418542,-0.9103490581,0.5856296378,-0.4741705978,1.18175092
3246.455542,-0.8326607582,0.6638251106,-0.6307140094,1.237654183
3256.492542,-0.6959933482,0.8087421378,-0.6363647586,1.242348861
3266.528917,-0.5705878948,0.8870862029,-0.5539172637,1.191350835
3276.565917,-0.4532657055,0.8741188328,-0.4035414952,1.064133108
3286.601917,-0.3774002751,0.7997916587,-0.2010155797,0.9069205744
3296.638916,-0.3423243633,0.6761629549,0.02472904444,0.7582834806
3306.675917,-0.4134330107,0.4937587702,0.264452607,0.6961750921
3316.711917,-0.5881589241,0.302999828,0.4527697885,0.8017108563
3326.7489170000003,-0.6315163936,0.1225589922,0.504673183,0.8176360337
3336.7859160000003,-0.4813373838,0.02031311754,0.5794543934,0.7535686391
3346.821917,-0.3137868811,0.0715120687,0.797936191,0.8603942977
3356.858917,-0.2055259757,0.1122058757,1.014360353,1.041036989
3366.894917,-0.07470227301,0.1044903284,1.224456074,1.231174779
3376.931916,0.05924778968,0.06299844962,1.503734297,1.506219088
3386.9689169999997,0.09673721284,-0.08285595942,1.661381078,1.666256368
3397.0049169999998,0.1489627889,-0.3047434312,1.731784478,1.76469146
3407.041917,0.1511081323,-0.5099792388,1.719731027,1.80010758
3417.077916,0.1801512524,-0.7533408659,1.590437395,1.769030254
3427.114916,0.2489760505,-0.8984585258,1.413823416,1.693550545
3437.151917,0.3573169166,-0.9042053155,1.192610384,1.538694953
3447.1879169999997,0.4165619288,-0.8731098226,0.8549675936,1.291051583
3457.224917,0.4373088732,-0.835274829,0.4804826671,1.058199737
3467.2609159999997,0.4953316712,-0.7345150242,0.160499053,0.9003475614
3477.297917,0.5323482008,-0.5992669527,-0.08439227879,0.806000958
3487.334917,0.5447666636,-0.4379081398,-0.3286585432,0.772366943
3497.370917,0.4906809421,-0.3473827165,-0.6302093947,0.8709801489
3507.407916,0.4002907357,-0.2915594948,-0.868694517,0.9999348859
3517.443917,0.2334483308,-0.3105109055,-0.9831233579,1.057093507
3527.4809170000003,0.08967860028,-0.3893938646,-1.037453347,1.11174605
3537.517917,-0.01501915812,-0.4488841675,-1.01102744,1.106299714
3547.553916,-0.07432381198,-0.4934495987,-0.8662369323,0.9996914316
3557.590917,-0.06281634539,-0.5563056321,-0.6696892101,0.8728719766
3567.626917,-0.06507717133,-0.6448695338,-0.4254287928,0.7752944032
3577.6639170000003,-0.05888102308,-0.7084783231,-0.2299195361,0.7471756836
3587.7009160000002,-0.05868791878,-0.7792151606,-0.08101317286,0.7856103821
3597.736917,-0.05519771576,-0.8392382911,0.03722746789,0.8418750391
3607.773917,-0.0543691653,-0.9110942857,0.1797317147,0.9302431364
3617.809917,-0.02889386997,-0.9721898686,0.2553777283,1.005587281
3627.8469160000004,0.04674351901,-0.961201781,0.3189188361,1.013806216
3637.8839159999998,0.1508986558,-0.9064797362,0.3244503021,0.9745480568
3647.9199169999997,0.2339633243,-0.8211953916,0.2312123555,0.8846241358
3657.956917,0.2576087335,-0.7593403284,0.09543240666,0.8075068657
3667.993917,0.2636281496,-0.6908143231,-0.06584841907,0.7423343213
3678.029916,0.3013163781,-0.5639379296,-0.2266427565,0.6783689904
3688.066917,0.3433726229,-0.4230125771,-0.4100237185,0.6818825766
3698.102917,0.3474688898,-0.3052302119,-0.5719003755,0.7355067309
3708.139917,0.3685100953,-0.1733493327,-0.686907506,0.7985559487
3718.176916,0.3903506152,-0.06745947316,-0.7513718891,0.849402201
3728.212917,0.3284534521,-0.0003183808923,-0.8479766625,0.9093658184
3738.249917,0.2231503607,0.03254764885,-0.9570681649,0.9832776339
3748.285917,0.1038496198,0.01139534622,-0.961041348,0.9667031964
3758.322916,-0.01589463249,-0.04069822893,-0.8169700474,0.8181375456
3768.359917,-0.06940323383,-0.1310996912,-0.6693342841,0.6855744465
3778.3959170000003,-0.1166458127,-0.198075892,-0.5411668253,0.5879641464
3788.432917,-0.1740897363,-0.2737743844,-0.3520257711,0.478729353
3798.468916,-0.2036289927,-0.3366368497,-0.1083015436,0.4080666117
3808.5059170000004,-0.2391462962,-0.407069632,0.07963732302,0.4787888256
3818.5429169999998,-0.276961994,-0.4706767403,0.2238325846,0.59020807
3828.5789170000003,-0.2646468808,-0.4895908018,0.2872549939,0.6263006916
3838.6159169999996,-0.2731652507,-0.4342883478,0.3226686555,0.6060863672
3848.6519160000003,-0.2640592356,-0.3772165994,0.2452064967,0.521676019
3858.688917,-0.2806955874,-0.3304515188,0.1679524988,0.4649690967
3868.7259169999998,-0.2918579221,-0.2461052138,0.008412389159,0.3818633148
3878.761917,-0.3035254562,-0.1319061685,-0.1669678277,0.3706820677
3888.7989159999997,-0.2958278891,-0.03667775653,-0.305302425,0.4266954049
3898.8349169999997,-0.2824357188,0.05129535712,-0.3589786953,0.4596377406
3908.871917,-0.2434135942,0.09659907237,-0.3262132376,0.4183259914
3918.908917,-0.2123657562,0.1064750196,-0.1968184483,0.3085022622
3928.944916,-0.1728932498,0.08416774571,-0.05234018147,0.1992881829
3938.981917,-0.1979753199,-0.007278540954,0.1067263037,0.225028239
3949.018917,-0.2362028079,-0.1100572432,0.3189381319,0.411856644
3959.054917,-0.2779304391,-0.2086628607,0.5076429838,0.6152129041
3969.091916,-0.2833759511,-0.3147776918,0.613427301,0.7454394533
3979.127917,-0.2487094174,-0.3556567459,0.632634235,0.7671858774
3989.164917,-0.2761166328,-0.3234744018,0.4810831761,0.6421192303
3999.2019170000003,-0.35750929,-0.2789364526,0.1850041491,0.4897396984
4009.237916,-0.4510466141,-0.2081773225,-0.1143615979,0.5097640834
4019.274916,-0.5608146393,-0.09470808282,-0.3242988592,0.6547155342
4029.3109170000002,-0.6557108563,-0.005766889527,-0.5044913346,0.8273460526
4039.3479169999996,-0.7343104447,0.06099873841,-0.6114181978,0.9574784007
4049.3849170000003,-0.8342200644,0.05401548184,-0.6397959048,1.052701091
4059.4209159999996,-0.9315642183,-0.004649632797,-0.5950360537,1.105396498
4069.457917,-0.9906886317,-0.07650058419,-0.4953778642,1.110277232
4079.493917,-1.01971538,-0.1153491195,-0.3693118948,1.090649417
4089.530917,-1.001095652,-0.1389167608,-0.2399691457,1.038785619
4099.567916,-1.003627935,-0.1349628004,-0.136090436,1.021765431
4109.603917,-0.9566598831,-0.1287018943,-0.1055124217,0.971027899
4119.640917,-0.9154310194,-0.1352320647,-0.09888635695,0.9306342859
4129.677917,-0.8288656229,-0.1172838901,-0.09987336695,0.8430589666
4139.713916,-0.7297623342,-0.05934149131,-0.09568676054,0.7383972056
4149.750917,-0.6470245251,-0.002148924842,-0.08520796537,0.6526145504
4159.786917,-0.5345812525,0.04370004326,-0.04509665072,0.5382569249
4169.823917000001,-0.4371279019,0.09968691386,-0.02252522886,0.448916105
4179.860916,-0.4200446767,0.0874225983,-0.01652130783,0.4293637091
4189.896917,-0.4152683786,0.07536388546,-0.05299390018,0.4253656015
4199.933917,-0.4060306549,0.0544325345,-0.0411807704,0.4117276398
4209.969916999999,-0.3457131171,0.02514185786,-0.001886896491,0.3466312634
4220.006916,-0.2634156033,0.03988027655,0.02460976124,0.2675515967
4230.043916,-0.2052932565,0.04339445315,-0.009355545044,0.2100379155
4240.079917,-0.1690310177,0.02794530541,-0.08665281236,0.1919925388
4250.116916999999,-0.1384205514,0.05504810013,-0.1590612227,0.2179243331
4260.152708,-0.1197661793,0.1143652524,-0.2728269893,0.3191518679
4270.189708,-0.06527305305,0.1769047321,-0.3433987892,0.3917634288
4280.226708,-0.01748419806,0.2084745073,-0.3321762282,0.3925663815
4290.262708,-0.003802151978,0.1930113993,-0.3180844384,0.3720827416
4300.299708,-0.02554019943,0.1194339113,-0.2243658507,0.2554540975
4310.3357080000005,-0.01050773889,0.0145369821,-0.08832043827,0.09012345
4320.372708,0.02947128251,-0.0774569694,0.04148248672,0.09267650892
4330.409708,0.05280094206,-0.1406212241,0.1601786256,0.219589299
4340.445708,0.06866794646,-0.19124057,0.2182783145,0.2982174795
4350.4827080000005,0.1007415323,-0.241414285,0.2293546951,0.3478983896
4360.518708,0.1524469985,-0.263241064,0.2766750419,0.4111994941
4370.555708000001,0.1937980691,-0.2462878662,0.2697455066,0.4134949128
4380.592708,0.2219252229,-0.2391860573,0.1936252838,0.3794094425
4390.628708,0.3056493111,-0.2315501053,0.1505991322,0.4119672939
4400.665708,0.3366591422,-0.2178545375,0.1164858913,0.4175750716
4410.702708,0.3981108937,-0.2224945955,0.03702924728,0.4575667097
4420.738708,0.4388048834,-0.2341605216,0.001119157076,0.4973752387
4430.775707999999,0.4344696115,-0.2474328241,-0.0190882355,0.5003510832
4440.811708,0.4045154952,-0.2765374862,-0.03757011473,0.4914440768
4450.8487079999995,0.3689572611,-0.2929168528,-0.06855918825,0.4760568301
4460.885708,0.3448421744,-0.2847443457,-0.07770306408,0.4539088386
4470.921708,0.3285594329,-0.301317109,-0.07508526564,0.4520852776
4480.958708,0.2992452943,-0.3151598074,-0.08086348414,0.4420546951
4490.994707999999,0.2869776897,-0.3171494687,-0.1274377263,0.4462962625
4501.031708,0.2850811453,-0.314521803,-0.1575614119,0.4527922509
4511.068708,0.2608543767,-0.3228439989,-0.1941491944,0.4582217401
4521.104708,0.1885977016,-0.3417615688,-0.2006010121,0.4388745026
4531.141708,0.1593968529,-0.3814404818,-0.1534104735,0.4409523458
4541.177708,0.1382710089,-0.4508146989,-0.04990832448,0.474176766
4551.2147079999995,0.1507033588,-0.5106212631,0.1225167096,0.5463111941
4561.251708000001,0.2128504904,-0.581860011,0.2589837062,0.6715198908
4571.287708,0.2683164471,-0.5905812793,0.3640219188,0.7438359501
4581.324708,0.3126358567,-0.5844028189,0.3996478343,0.7739420037
4591.360708,0.3706827745,-0.5850797803,0.350610745,0.7763066167
4601.397708,0.3919126989,-0.5617634962,0.2895307302,0.7436409302
4611.434708,0.462666201,-0.5400603859,0.2257580727,0.7461179139
4621.470708000001,0.5205637224,-0.5066608708,0.1510949761,0.7419713734
4631.507708,0.5543998052,-0.4714381939,0.08738020599,0.7329723154
4641.544707999999,0.5898763244,-0.4343088131,-0.007134187818,0.7325497388
4651.580708,0.5907944834,-0.4008294104,-0.1012246585,0.7210747322
4661.617708,0.6089607592,-0.3720992625,-0.1713392061,0.7339265569
4671.653708,0.5655773427,-0.3867533351,-0.1557756722,0.7026534941
4681.690708,0.5223270965,-0.4025077806,-0.1170922476,0.6697377872
4691.727708,0.4699961244,-0.4234979691,-0.1396794569,0.6478867474
4701.7637079999995,0.3930068591,-0.4194000942,-0.152705884,0.5947015364
4711.800708,0.3380332379,-0.3951637508,-0.1726823115,0.5479416398
4721.836708,0.332914293,-0.3696656513,-0.1739277685,0.5270061564
4731.873708,0.3467683934,-0.3118886556,-0.2054056692,0.5096217628
4741.910707999999,0.3300643601,-0.234378038,-0.2428892452,0.4720918681
4751.946708,0.3107621165,-0.1535765344,-0.2727112144,0.4410558371
4761.983708,0.2896055746,-0.10688374,-0.2906335151,0.4239850974
4772.019708,0.2883544166,-0.1045881231,-0.2993177998,0.4285768197
4782.056708,0.3011377457,-0.1147242714,-0.1987000823,0.378585952
4792.093708,0.2947660348,-0.1416741249,-0.0614431268,0.3327669316
4802.1297079999995,0.2988348198,-0.167063722,0.05186772645,0.3462698338
4812.166708000001,0.2907519212,-0.1860209433,0.1716268891,0.3854818545
4822.202708,0.276084327,-0.1730001808,0.268169682,0.4219793792
4832.239708,0.2947745132,-0.1762009466,0.2898458952,0.4493878394
4842.276708,0.2932989684,-0.1260887371,0.2583510375,0.4106919929
4852.312708,0.2805644636,-0.07152007207,0.2199225515,0.3635896968
4862.349708,0.2942723836,-0.01447200492,0.1989035654,0.3554831965
4872.386708,0.3273097368,0.02502593681,0.2345996475,0.4034785693
4882.422708,0.341403573,0.06342891432,0.2902973002,0.4526059537
4892.459707999999,0.3424553409,0.07653979708,0.2783134317,0.4478753927
4902.495708,0.3385249887,0.05842570771,0.2631182724,0.4327169474
4912.532708,0.3137254854,0.06106294814,0.2890261155,0.4309158378
4922.569708,0.2711530776,0.02045337763,0.2740777087,0.3860840875
4932.605708,0.2275407426,-0.03001291741,0.2436066985,0.3346935738
4942.642708,0.220743062,-0.03851137027,0.2780450445,0.3570989665
4952.6787079999995,0.2486562078,-0.009220839813,0.2817539334,0.3758992053
4962.715708,0.2903215662,0.01221925545,0.2823445022,0.4051596474
4972.752708,0.2833277115,8.262846619e-05,0.2709295678,0.3920171293
4982.788708,0.2443320456,-0.02672959618,0.2096946019,0.3230858181
4992.825707999999,0.2325404043,-0.06366371658,0.1430725962,0.2803531278
5002.861708,0.2251650189,-0.09682747923,0.07509286702,0.2563470014
5012.898708,0.2416224459,-0.1094600963,0.04333254576,0.2687761681
5022.935708,0.2700621334,-0.1324139261,0.04623978138,0.3043108954
5032.971708,0.2777768035,-0.1607658322,0.07353107572,0.3292604205
5043.008708,0.2834032868,-0.195667497,0.1111807126,0.3618899601
5053.044707999999,0.2698737068,-0.2285111611,0.04926045299,0.3570374779
5063.081708000001,0.2208509432,-0.2338758353,-0.02298774362,0.3224926074
5073.118708,0.2118795602,-0.2399364012,-0.06825220942,0.3272931236
5083.154708,0.2215605028,-0.2394877005,-0.06029005587,0.3317805087
5093.191708,0.2495872307,-0.2442947696,-0.06219741762,0.3547424967
5103.228708,0.231677063,-0.2407575696,-0.1147638863,0.3532834817
5113.264708,0.2090745047,-0.226023244,-0.2129386371,0.374354803
5123.301708,0.2120229632,-0.1924198803,-0.289602651,0.407245433
5133.337708,0.1523157285,-0.1935024192,-0.3542705172,0.4314520446
5143.374707999999,0.1331525025,-0.2113881748,-0.3266599649,0.4112435799
5153.4117080000005,0.140613842,-0.1678816013,-0.2211738557,0.3112464603
5163.447708,0.1218716155,-0.1453726716,-0.1726302713,0.2564899898
5173.484708,0.1287752768,-0.1418195379,-0.09782274842,0.2150933364
5183.520708,0.0810352461,-0.1495775505,-0.06189277768,0.181027265
5193.557708,0.06665211886,-0.1375907584,-0.08649493754,0.1756561868
5203.594708,0.05196698293,-0.1286348706,-0.1247696418,0.1865876758
5213.630708000001,0.003413896859,-0.1291652861,-0.1995520216,0.2377316453
5223.667708,-0.03497687459,-0.1271334518,-0.2398527861,0.2737072438
5233.703708,-0.07978423432,-0.1373207632,-0.2627522367,0.307019957
5243.740707999999,-0.07681297168,-0.136326225,-0.2532382321,0.2976821702
5253.7777080000005,-0.06435562491,-0.1193157975,-0.2304375994,0.2673563039
5263.813667,-0.06145599067,-0.08869955711,-0.2330606604,0.2568301416
5273.850667,-0.05004675731,-0.07323169827,-0.192366963,0.2118315558
5283.886667,-0.0776880075,-0.07442957349,-0.1887972379,0.2173006787
5293.923666000001,-0.08321961969,-0.1108584579,-0.1585028136,0.2105664852
5303.960667,-0.09917082399,-0.1307563866,-0.07148279607,0.1790024444
5313.996666999999,-0.08040506244,-0.1541885186,0.002195629478,0.1739077173
5324.033667,-0.03669113204,-0.1539321913,0.1163408804,0.1964091626
5334.070666,-0.01992204845,-0.1720054232,0.1719262666,0.2440110546
5344.106667,0.01810356438,-0.1633443447,0.1497670734,0.2223494778
5354.143666999999,-0.01401753008,-0.126469135,0.1027677387,0.1635608186
5364.179667,-0.03716958046,-0.1211978701,0.03003246903,0.1302783582
5374.216665999999,-0.03623110235,-0.09120907243,-0.02978980958,0.1025632509
5384.253667,-0.02063000008,-0.04120580379,-0.07838601887,0.09092790069
5394.289667,-0.03701769903,-0.02790404599,-0.1296532363,0.1376913487
5404.326667,-0.03198266163,-0.008774624169,-0.1446332181,0.1483868338
5414.362666999999,-0.01119390965,0.009554569647,-0.1411131942,0.1418785643
5424.399666,0.007600795627,0.0009461160377,-0.1236884916,0.1239254218
5434.436667,0.04268350482,0.01221286006,-0.06436790407,0.07819375044
5444.472667,0.03384719253,-0.01214770015,0.008365611434,0.03692130165
5454.509667,0.03671539798,-0.02239286251,0.03084406257,0.05292274498
5464.546666,0.02151351437,-0.0009547406808,0.009740876555,0.02363530212
5474.582667,0.04929860607,0.01285751559,-0.02539445758,0.05692580033
5484.619667,0.05473154649,0.01779051907,-0.01383392751,0.05918971448
5494.655667,0.03043256477,0.02338491574,0.001974604726,0.03843038311
5504.692666000001,0.00409056589,-0.003575243466,0.01827898085,0.01906924844
5514.7296670000005,-0.01091514364,-3.504674882e-05,0.03164454639,0.03347415279
5524.765667,-0.000914504528,-0.003207599781,0.04819859862,0.04831386886
5534.802667,0.0004584217072,-0.01682094108,0.1158426976,0.1170584674
5544.838666000001,0.01656092271,-0.03677606285,0.192310245,0.1964942068
5554.875667,0.01345561266,-0.09424260791,0.2180800939,0.2379530416
5564.912667,-0.01757541463,-0.1193276747,0.1680068779,0.2068194869
5574.948667000001,-0.03401749268,-0.1057987526,0.09599900186,0.1468549428
5584.985666,-0.02022829637,-0.07604746152,0.01200199485,0.07960181064
5595.022667,-0.002490329146,-0.02835413542,-0.05654725313,0.0633067972
5605.058666999999,0.02829043731,-0.001820347868,-0.07335858285,0.07864568766
5615.0956670000005,0.04503174663,0.02312434919,-0.09485060871,0.1075138675
5625.131667,0.06007283181,0.03410512783,-0.1407337099,0.1567733459
5635.1686660000005,0.04194456294,0.029216417,-0.1600113952,0.1679779509
5645.205667,0.04627968863,0.0326091177,-0.1842644763,0.1927655606
5655.241667,0.06695266575,0.02892968416,-0.1797346383,0.1939693952
5665.278667,0.05575612485,0.02642890312,-0.1404583061,0.1534137156
5675.314666,0.0606148687,0.007794777006,-0.09501082242,0.1129689215
5685.351667,0.06648430377,0.003796524033,-0.03919856429,0.07727291689
5695.388666999999,0.05575554013,-0.03527047791,-0.007578576207,0.06640874705
5705.424667,0.05003433198,-0.04934626088,0.00162494123,0.0702931595
5715.461666,0.04096413106,-0.03646871857,0.02660132289,0.06095619613
5725.497667,0.02950695053,-0.03147103027,-0.04192804456,0.06015851391
5735.534667,0.02759856552,-0.02786965705,-0.1086260641,0.1154903476
5745.571667,0.04065612897,-0.001261902228,-0.1366997159,0.142623019
5755.607666000001,0.04218429878,0.008494030908,-0.1486835843,0.1547852444
5765.6446670000005,0.04797801241,-0.003264573589,-0.1787341797,0.1850903945
5775.680667,-0.004020253122,-0.01598986901,-0.1715783572,0.1723687066
5785.717667,-0.03293546543,-0.06513440095,-0.09344376862,0.11857054
5795.754666,-0.02144334778,-0.09158055335,-0.02568564892,0.09750162807
5805.790666,-0.02540834472,-0.122152428,0.01994134426,0.1263505317
5815.827667,-0.0111234507,-0.1166602115,0.07342114806,0.1382895552
5825.864667,-0.0001129974425,-0.1043518956,0.101521697,0.1455884125
5835.900667,0.02500181705,-0.1087679321,0.08564943016,0.1406818354
5845.937666,0.03631851822,-0.1004628394,0.05258810341,0.1190685747
5855.973667,0.04751052752,-0.08569503844,0.003424129486,0.09804394168
5866.0106670000005,0.03007573843,-0.1165346425,-0.03250876486,0.1246663256
5876.047667,0.02526801154,-0.1392170884,-0.02461502373,0.1436167452
5886.083666,0.04429806724,-0.1309266867,-0.002422501445,0.1382388678
5896.120667,0.089530081,-0.1171657763,-0.01485543609,0.1482030315
5906.156667,0.1178095548,-0.107250872,0.0158021003,0.1600985544
5916.193667,0.1401165363,-0.06641896114,0.03499149263,0.158960771
5926.230666,0.1340194984,-0.05204584725,0.07587347031,0.1625631559
5936.266667,0.1007789545,-0.08296987049,0.1425697356,0.1933042333
5946.303666999999,0.1238294095,-0.110278341,0.1598324704,0.2303073029
5956.340667,0.1414048241,-0.1282230804,0.1675396854,0.2539803709
5966.376666,0.1868530387,-0.09858361736,0.1781705081,0.2763648271
5976.413667,0.2540205896,-0.06679771453,0.1928891194,0.3258751402
5986.449667,0.329616171,-0.04014932156,0.1977697903,0.3864863234
5996.486667,0.3881258959,-0.01443034351,0.1881663233,0.431574456
6006.523666,0.4365433265,-0.003628197312,0.1570474416,0.4639473447
6016.559666,0.5005026564,-0.01083379425,0.1946462077,0.5371288731
6026.596667,0.5617133564,-0.0268710988,0.2200687319,0.6038826024
6036.632667,0.5848373401,-0.08505294107,0.2018248343,0.6245013859
6046.669667,0.6088584329,-0.09296341985,0.1602160478,0.6364117934
6056.706666,0.6480401865,-0.1185146559,0.117177617,0.66912809
6066.7426669999995,0.6840603505,-0.1458258308,0.05330789566,0.7014595268
6076.779667000001,0.72248679,-0.1866945791,-0.009699361324,0.7462815187
6086.816667,0.7780486411,-0.2206358387,-0.07973087847,0.8126480629
6096.852666,0.7977090266,-0.2142870782,-0.08354033947,0.8302033675
6106.8896669999995,0.7853048895,-0.2424748237,-0.1315202522,0.8323433104
6116.925667,0.7383420999,-0.2782804681,-0.1731647068,0.8078212
6126.962667,0.696946152,-0.3389584867,-0.1851111531,0.7968016902
6136.999666000001,0.6949765174,-0.4269468762,-0.1446408194,0.8283700631
6147.035667,0.6993341549,-0.4990116895,-0.02215451539,0.8594019717
6157.072667,0.7017071012,-0.5547379936,0.1402554077,0.9054273448
6167.1086669999995,0.7279473585,-0.5728946945,0.2686573398,0.9645166945
6177.145666,0.7751683027,-0.5711216725,0.3358289838,1.01972887
6187.182667,0.7998602173,-0.566785012,0.4314677972,1.071067728
6197.218666999999,0.8170771976,-0.5804106324,0.5585049891,1.147353246
6207.255667,0.8500189488,-0.5861795685,0.5863658023,1.187418862
6217.2916669999995,0.8857591774,-0.5515622976,0.5714676815,1.189691388
6227.328666,0.9219128041,-0.5089057631,0.5311815351,1.179432964
6237.365667,0.9802314712,-0.4888006237,0.5303839749,1.216999157
6247.401667,1.037702584,-0.4823442013,0.5629178828,1.27528786
6257.438666999999,1.157021159,-0.4499500418,0.5690276384,1.365630059
6267.476458,1.181129668,-0.4388192821,0.4630608881,1.342406437
6277.512458,1.195761741,-0.3701498008,0.2618313003,1.278832532
6287.549458,1.186759952,-0.2739580601,0.03051603377,1.218352753
6297.5854580000005,1.085665102,-0.1535961957,-0.2758868372,1.130652047
6307.622458,1.007990981,-0.1071960544,-0.4617458493,1.113887805
6317.659457999999,0.9584191641,-0.09717743509,-0.4262444794,1.053420668
6327.695458,0.925180082,-0.1714926224,-0.2294014728,0.9685003559
6337.7324579999995,0.8944997415,-0.3060217787,-0.0456275779,0.9464993357
6347.768458,0.850092916,-0.4230104575,-0.002798477411,0.9495281168
6357.805458,0.7786090967,-0.4958519273,-0.1245825309,0.9314623268
6367.842458,0.6532496171,-0.4837048484,-0.3982901108,0.9051742677
6377.878457999999,0.5139375114,-0.4006445653,-0.6629596496,0.9296038567
6387.915458,0.3960696307,-0.3234811992,-0.8597330743,1.000326046
6397.952458,0.3250461334,-0.2460351934,-0.974344933,1.056189544
6407.988458,0.2660677542,-0.1665170074,-0.9800179017,1.029055417
6418.025458,0.1773615459,-0.1147203977,-0.930406031,0.9540824231
6428.061458,0.0595622237,-0.129130349,-0.8120233029,0.8243810709
6438.0984579999995,-0.06598144323,-0.191628679,-0.6378160375,0.6692416598
6448.135458000001,-0.1944216746,-0.2966963468,-0.4292762607,0.5568721737
6458.171458,-0.2759681135,-0.4302925799,-0.1677823448,0.5380158169
6468.208458,-0.3301748724,-0.5425413595,0.09018219173,0.6414821906
6478.244458,-0.3891035503,-0.6379012607,0.3085242409,0.8083976735
6488.281458,-0.4055595155,-0.7088168038,0.4701342648,0.942298259
6498.318458,-0.3360823144,-0.7690605935,0.6218385208,1.044551897
6508.354458000001,-0.2621395947,-0.7795054749,0.7625552738,1.121533102
6518.391458,-0.2160655819,-0.7623954986,0.7858423948,1.116010529
6528.428457999999,-0.1508366753,-0.7477819911,0.741842097,1.064076739
6538.464458,-0.1091157684,-0.7287884074,0.7087047565,1.022399739
6548.501458,-0.08749013364,-0.7048895214,0.5024225897,0.8700300106
6558.537458,-0.1065862629,-0.657614125,0.1924979407,0.6934496564
6568.574458,-0.1332581909,-0.5881660869,-0.1558329749,0.6228812144
6578.611458,-0.1796184249,-0.480336706,-0.4441591787,0.6784272295
6588.6474579999995,-0.2117538451,-0.3609349544,-0.6852702856,0.8029377912
6598.684458,-0.2516752714,-0.259032969,-0.8356624264,0.9103681739
6608.720458,-0.336278927,-0.2029310545,-0.8858303672,0.9689994681
6618.757458,-0.417398373,-0.1513435558,-0.8911098182,0.9955917747
6628.794457999999,-0.5325708336,-0.1405393631,-0.7911399722,0.9639945337
6638.830458,-0.6706952235,-0.1731411718,-0.6726742136,0.9655571169
6648.867458,-0.7784496139,-0.2039415995,-0.5769289809,0.9901631312
6658.904458,-0.8488727483,-0.1726798265,-0.4787349343,0.9897425941
6668.940458,-0.8931997593,-0.1548847027,-0.4274712253,1.002260809
6678.977458,-0.9001708098,-0.1077789487,-0.3617432588,0.9761055137
6689.013457999999,-0.8972638665,-0.06949905507,-0.3112385184,0.9522510069
6699.050458000001,-0.8766264112,0.00633553125,-0.2249184126,0.905042704
6709.087458,-0.8606848548,0.0490933688,-0.1302695328,0.8718708215
6719.123458,-0.8841117243,0.01174193993,-0.04361496627,0.8852647511
6729.160458,-0.9224709208,-0.06412063994,0.08681770384,0.9287633552
6739.196458,-0.9515713437,-0.1119580999,0.1696177858,0.9730328008
6749.233458,-0.9888087519,-0.1140220939,0.1913665044,1.013590117
6759.270458,-0.9978940094,-0.1068269489,0.1876997155,1.020997372
6769.306458,-1.023819833,-0.07112808935,0.2026077765,1.046095677
6779.343457999999,-1.044148701,-0.05477181919,0.2101489305,1.066493805
6789.3804580000005,-1.05846707,-0.05912097819,0.1336457151,1.068507841
6799.416458,-1.082481,-0.05724190235,0.02309474766,1.08423942
6809.453458,-1.102811769,-0.04949565724,-0.07886315167,1.106735296
6819.489458,-1.170765917,-0.0331779056,-0.2248102391,1.192616137
6829.526458,-1.183484488,-0.01252064288,-0.3522789556,1.234865483
6839.563458,-1.196227325,0.04007550046,-0.4741442853,1.287392194
6849.599458000001,-1.207635243,0.1051483595,-0.5415615124,1.327677645
6859.636458,-1.210134635,0.143811465,-0.5518374091,1.337771318
6869.672458,-1.258864892,0.1347304467,-0.5019834638,1.361939979
6879.709457999999,-1.267421269,0.08018878855,-0.4383224881,1.343470698
6889.7464580000005,-1.28992764,0.03438718289,-0.3816460115,1.345640916
6899.782458,-1.265931837,0.03835970812,-0.3481455588,1.313491611
6909.819458,-1.248908984,0.0473757492,-0.3725050592,1.304138846
6919.856458,-1.27952939,0.03950422749,-0.3498313111,1.327078743
6929.892458,-1.327100437,-0.01157675609,-0.2798161662,1.356328381
6939.929458,-1.29409422,-0.05338354401,-0.1662304938,1.305818605
6949.965458000001,-1.236671492,-0.1295516409,-0.157055043,1.253318114
6960.002458,-1.220167434,-0.1284156731,-0.06896206141,1.228842918
6970.039457999999,-1.081085124,-0.1588542312,0.02731117487,1.093035046
6980.075458,-0.9627151135,-0.1542141733,0.08026882231,0.9782870155
6990.112458,-0.8665469809,-0.1250682883,0.1191545606,0.8835969421
7000.148458,-0.7863946643,-0.1388868669,0.1589612353,0.8142326475
7010.185458,-0.7329147144,-0.1865068104,0.1905233359,0.7799025006
7020.222458,-0.6814191632,-0.2359345669,0.2942295527,0.7788249004
7030.258457999999,-0.5873131974,-0.2560178523,0.414510287,0.7630863061
7040.2954580000005,-0.4919782931,-0.2726219713,0.4838676202,0.741952326
7050.332458,-0.4263427126,-0.249363794,0.4852440548,0.6923959872
7060.368458,-0.4233517157,-0.2648917329,0.4271437812,0.6571499944
7070.405458,-0.4276032262,-0.2549894732,0.3150041252,0.5891449307
7080.441458,-0.3981072392,-0.2339138422,0.197986722,0.5023980509
7090.478458,-0.3448814969,-0.2197168757,0.1352145231,0.4306991056
7100.515458,-0.2576271522,-0.1774155595,0.1169577616,0.3339568061
7110.551458,-0.1441774276,-0.155727725,0.1015509331,0.2352676072
7120.588458,-0.0547426562,-0.1176635206,0.07489698529,0.1498366473
7130.6254579999995,0.009699653685,-0.097362938,0.06011580884,0.1148369951
7140.6614580000005,0.0819827874,-0.07307689324,0.009722165465,0.1102539353
7150.698458,0.1092066926,-0.07226734623,-0.0605157584,0.1442595856
7160.734458,0.1475427926,-0.06673120245,-0.09351568937,0.1869949549
7170.771458,0.1753318311,-0.0251065553,-0.1140300608,0.2106524267
7180.8084579999995,0.2195016982,0.007373923659,-0.1174454194,0.2490558106
7190.844458,0.222716205,0.03463525102,-0.08680074692,0.2415294562
7200.881458,0.1897297226,0.02337804526,-0.04739636064,0.196952572
7210.917458,0.1426217759,0.008304946572,-0.04232857883,0.1490021868
7220.954457999999,0.09840337694,-0.0136968834,-0.07340945363,0.1235304703
7230.991458,0.06239008337,-0.06376176707,-0.07854097009,0.118856087
7241.027458,0.03633737549,-0.1036310801,-0.0235134083,0.1123062153
7251.064458,0.05023562238,-0.1474273831,0.06857439101,0.170179018
7261.101541999999,0.07347698897,-0.2000903309,0.1254835868,0.247348214
7271.137542,0.08099431559,-0.2023441402,0.1434795624,0.2609398687
7281.174541,0.08362030014,-0.1851438975,0.1108520991,0.2314277539
7291.210542,0.07871726364,-0.1716328825,0.04396404505,0.1938739054
7301.247541999999,0.05817877248,-0.1610518342,-0.006614370346,0.171365728
7311.284542,0.08203658178,-0.1364618073,0.00469589889,0.1592917985
7321.3205419999995,0.1330462293,-0.1142074507,0.0446054846,0.1809262009
7331.357541,0.1707164045,-0.09357723132,0.08966412842,0.2143372224
7341.393542,0.2243141028,-0.08432920195,0.1076378846,0.2627054343
7351.430542,0.2172357559,-0.09245456591,0.09281753182,0.253681522
7361.467541999999,0.2040972085,-0.1075645021,0.1124413723,0.2566492837
7371.503541,0.1946240614,-0.1582825928,0.1205005896,0.278302527
7381.540542,0.2341636645,-0.2110778338,0.1371096057,0.3437812061
7391.577542,0.2301821492,-0.2322286016,0.1436350983,0.3571344098
7401.613542,0.2826474611,-0.2356929307,0.1291895521,0.390039338
7411.650541,0.3077878571,-0.2676307149,0.05495271742,0.4115572448
7421.6865419999995,0.3132044984,-0.296031153,-0.02784853399,0.431864611
7431.723542000001,0.3783663082,-0.3088842101,-0.1693271792,0.5169547485
7441.760542,0.4459370247,-0.3057411855,-0.3102865916,0.6233901438
7451.796541000001,0.6009857418,-0.2911883428,-0.3806689417,0.7686893755
7461.833542,0.6997830018,-0.2638295862,-0.4037683672,0.8499006968
7471.869542,0.8074314114,-0.2236421847,-0.366310519,0.9144094855
7481.906542,0.8608549357,-0.2228522258,-0.3723121011,0.9640283375
7491.943541000001,0.8560114677,-0.2307966185,-0.4347480851,0.9874353698
7501.979541,0.8071090836,-0.2539130739,-0.4780537337,0.9718190646
7512.016541999999,0.7021878154,-0.2839096557,-0.5462135571,0.9338210057
7522.053542,0.6442057286,-0.3180067436,-0.6049780744,0.9392165779
7532.089542,0.6603785424,-0.2963236599,-0.6250778782,0.9563628415
7542.126541,0.64134549,-0.1834408229,-0.5942349851,0.8933587133
7552.162542,0.6742496728,-0.0909428414,-0.4804832518,0.8329149878
7562.199542,0.6460458474,-0.003921435177,-0.3059596521,0.7148439853
7572.236542,0.5991465001,-0.001697154343,-0.1279633909,0.6126614386
7582.272541,0.5171959089,-0.01051643662,0.02591602921,0.5179515848
7592.309542,0.4346873106,-0.05741322577,0.1500021315,0.4634112385
7602.346542,0.3492357356,-0.07292252675,0.2510735929,0.4362582297
7612.382541999999,0.28338929,-0.05407081112,0.3283328533,0.4370762003
7622.419541,0.2002379183,-0.04038247928,0.3650527829,0.4183174666
7632.455542,0.1396185454,0.01501272619,0.3735248137,0.3990482509
7642.492542,0.09398511115,0.07677321061,0.3544529504,0.3746521333
7652.529542,0.0544249788,0.09409295574,0.2581346905,0.2800876311
7662.565541,-0.02569191183,0.1143826479,0.1940725958,0.2267325229
7672.602542,-0.07169078336,0.1660427982,0.1552020603,0.2383221743
7682.639542000001,-0.125222198,0.2149715678,0.1409178972,0.2859217159
7692.675542,-0.2172255233,0.2090312353,0.1428170729,0.3335831255
7702.712541000001,-0.3294454688,0.1920337448,0.1059597337,0.3957761252
7712.748541,-0.4767545555,0.1805447701,0.05630050063,0.5128947909
7722.785542,-0.6453993646,0.1064656641,0.08332516193,0.6594075827
7732.822542,-0.7851397057,0.009189593755,0.244815318,0.8224739181
7742.858542,-0.817873296,-0.07331728689,0.3874289078,0.9079610737
7752.895541,-0.8401609817,-0.1107212676,0.5240455931,0.9963701411
7762.931541999999,-0.8089360461,-0.1361482869,0.546062699,0.9854432272
7772.9685420000005,-0.7546624097,-0.1619943688,0.4026047713,0.8705447318
7783.005542,-0.746264931,-0.1522010865,0.2388751316,0.7982091496
7793.041541,-0.7213368619,-0.1791519267,0.1196042114,0.7528130237
7803.078541999999,-0.6121283421,-0.2003316016,0.03457107782,0.6450031141
7813.1155420000005,-0.4878757404,-0.2580782649,-0.05591575384,0.5547555321
7823.151542,-0.3482653537,-0.2966930212,-0.1220769989,0.473516947
7833.188541,-0.2149358998,-0.343529511,-0.1739681143,0.4409930507
7843.224542,-0.0995546937,-0.3825575924,-0.2697876066,0.4785883421
7853.261542,0.02868300475,-0.396265622,-0.4082865107,0.5696902955
7863.2985419999995,0.1394859507,-0.430400059,-0.5269487357,0.6945325848
7873.334541,0.2134002383,-0.4969847156,-0.5972439623,0.8057504699
7883.371542,0.3063668741,-0.5576871099,-0.6175694686,0.8867173296
7893.408542,0.3577188761,-0.5737577435,-0.5785790652,0.8898957677
7903.444542,0.3879537684,-0.5961070443,-0.5145421135,0.8778412848
7913.481541,0.4428550304,-0.5868093867,-0.4956018126,0.8866154696
7923.517541,0.4749086626,-0.5483179335,-0.5198578173,0.8924365211
7933.554542000001,0.5243782997,-0.4859691826,-0.4976910228,0.8711113602
7943.591542,0.566653742,-0.4063619728,-0.4686940956,0.840178952
7953.627542,0.5787302157,-0.3734021683,-0.5452171916,0.8784188226
7963.664541,0.6116084515,-0.349251048,-0.7005531532,0.9933860845
7973.700542,0.6189056305,-0.2926929045,-0.8159959012,1.065158498
7983.737542,0.5529627789,-0.2310566003,-0.8648920727,1.052232524
7993.774542,0.4940085194,-0.1877309981,-0.9441627753,1.082003092
8003.810541,0.455923265,-0.1490286797,-1.121086072,1.219389008
8013.847542,0.3724012712,-0.06539387114,-1.334640421,1.387164056
8023.884542,0.28687339,0.005794627257,-1.521438496,1.548258705
8033.920542000001,0.2991139513,0.0698813168,-1.53663424,1.56703457
8043.957540999999,0.3165944217,0.1282015553,-1.391091195,1.432411387
8053.993542,0.351278497,0.09508961365,-1.175128963,1.230189699
8064.0305419999995,0.3463387692,-0.02471875699,-0.8891422302,0.9545341615
8074.067542,0.2605652319,-0.1879516574,-0.6138646728,0.6928563358
8084.1035409999995,0.1894068101,-0.3162124524,-0.4173403394,0.5568107521
8094.140542,0.06569683,-0.4420026891,-0.2259896225,0.5007531928
8104.177542,-0.04770801723,-0.4994952542,-0.1235896736,0.5167649092
8114.2135419999995,-0.1404126978,-0.4061934999,-0.105721752,0.4425900743
8124.250541,-0.175884393,-0.2945734421,-0.08734395325,0.3540307877
8134.2865409999995,-0.1639082721,-0.1975377655,0.09576862156,0.2739684641
8144.323542,-0.09567243487,-0.1361832788,0.3650223774,0.4011738229
8154.360541999999,-0.04869195744,-0.1326091591,0.5953067797,0.6118384246
8164.396542,-0.06021930456,-0.1623643148,0.81314246,0.8313778898
8174.433541000001,-0.08097326562,-0.2401010186,0.9969742423,1.028670408
8184.470542,-0.07755410627,-0.3131291424,1.114340724,1.160094716
8194.506542,-0.09352767617,-0.3774104712,1.184559352,1.246742535
8204.543542,-0.08654522359,-0.3965029825,1.159512219,1.228484138
8214.579541000001,-0.02613164529,-0.376725543,1.077327849,1.141595503
8224.616542,-0.009776836932,-0.3326263176,0.9572470897,1.013438624
8234.653542,-0.01495761618,-0.2436977872,0.8256069696,0.8609525016
8244.689542,-0.001895228773,-0.1465595467,0.6636537141,0.6796466323
8254.726541,-0.02882414192,-0.05166689286,0.4887652481,0.4923329835
8264.763332999999,-0.04134522334,0.03069700509,0.3400629526,0.3439397409
8274.799333,-0.05000202611,0.1030037469,0.2083169979,0.2377097939
8284.836333,-0.1238511904,0.1569192049,0.07113137841,0.2121848892
8294.872333000001,-0.1792493194,0.180633063,-0.06257982552,0.2620588799
8304.909333,-0.1804665636,0.2107008346,-0.1687097132,0.3246936858
8314.946333,-0.1175095926,0.2608820048,-0.2294377255,0.3667554971
8324.982333,-0.09615804613,0.3113838948,-0.2187835139,0.3925207328
8335.019333,-0.06970421925,0.3343876451,-0.2166837788,0.4045066568
8345.055333,-0.1135595061,0.3466851802,-0.2133689922,0.4226259604
8355.092333,-0.12698369,0.3534912296,-0.1599505842,0.4082463671
8365.129333,-0.09647496521,0.3543114843,-0.07362112284,0.3745185129
8375.165333,-0.1075476913,0.316308968,0.03560545027,0.3359845491
8385.202333000001,-0.07451764718,0.3237565665,0.1653873253,0.3711120605
8395.239333,-0.02752328262,0.3248197731,0.261466434,0.4178876789
8405.275333000001,-0.0126277931,0.2887185154,0.3269242591,0.4363454062
8415.312333,-0.05172520056,0.2045970358,0.4411747599,0.4890507256
8425.348333,-0.1306843928,0.06281283706,0.5486155933,0.5674530221
8435.385332999998,-0.1992880198,-0.05635758407,0.771526072,0.7988393906
8445.422333,-0.2257329297,-0.1230892982,0.962841121,0.9965788253
8455.458332999999,-0.2171894167,-0.1481150888,1.014752117,1.048251487
8465.495332999999,-0.2145872596,-0.1565403784,1.019370248,1.053407938
8475.532333000001,-0.2316095276,-0.1646331441,0.944831112,0.986637155
8485.568333,-0.2962155595,-0.154269064,0.8295596874,0.8942661107
8495.605333,-0.376191144,-0.1501262386,0.7156699598,0.8223388326
8505.641333,-0.3965948568,-0.1003200211,0.6185968244,0.7416290301
8515.678333,-0.4056035158,-0.04680484168,0.5686908388,0.7000815491
8525.715333,-0.3818625046,-0.01173187176,0.5611748278,0.6788768641
8535.751333,-0.346529827,-0.000103861168,0.5829042506,0.6781300002
8545.788333,-0.2935692559,0.03116626242,0.5898788095,0.6596296338
8555.825332999999,-0.2135275979,0.08549751218,0.6224010229,0.6635411766
8565.861333,-0.1665278247,0.1326622317,0.6791032273,0.7116965487
8575.898333,-0.120432031,0.16401111,0.7008718264,0.7298115067
8585.934333000001,-0.09771881416,0.2232471687,0.7108606249,0.7514726163
8595.971333,-0.06873635888,0.2164063649,0.7202834129,0.755224865
8606.008333,-0.0434917362,0.1590660466,0.6745763129,0.6944398752
8616.044333,-0.02560627297,0.1115554643,0.6170379567,0.6275636564
8626.081333,-0.02041248366,0.06268383287,0.5320001453,0.5360691066
8636.118333,-0.01544264272,0.0378046566,0.3998255897,0.4019056723
8646.154333,-0.01966360152,-0.007126353462,0.2737426633,0.2745405031
8656.191333,-0.03875593007,-0.02442972638,0.1257437879,0.1338294954
8666.227333,-0.04140808091,-0.03134177025,-0.0249260956,0.05760421833
8676.264333000001,-0.05200615928,-0.04309188715,-0.154623186,0.1687302018
8686.301333,-0.05977038458,-0.02658323307,-0.273562569,0.2812750368
8696.337333000001,-0.06361536741,-0.006253487505,-0.4030246013,0.4080623119
8706.374333,-0.0556327486,0.0352413606,-0.4682771891,0.4728852737
8716.411333,-0.03730172753,0.02390575647,-0.4737197775,0.4757870654
8726.447333,-0.05055400327,-0.04784327064,-0.4712312025,0.476343922
8736.484333,-0.03819722861,-0.06316332282,-0.492957117,0.4984529595
8746.520332999999,-0.02051086307,-0.07406900128,-0.5174353158,0.5231120516
8756.557333,-0.02669210091,-0.0791094839,-0.4998229176,0.5067481896
8766.594333000001,-0.03951782227,-0.1190863309,-0.4802072632,0.4963287501
8776.630333,-0.07906488061,-0.152108463,-0.4828811949,0.512408517
8786.667333000001,-0.0727573429,-0.135917669,-0.4342656898,0.4608187638
8796.704333,-0.01931832343,-0.08379895085,-0.339946593,0.3506553121
8806.740333,0.05574296862,-0.05127898492,-0.2483043516,0.2595994296
8816.777333,0.1065403622,-0.03532425402,-0.1773016119,0.2098440213
8826.813333,0.08178661332,-0.09027856115,-0.1815344113,0.2186184146
8836.850332999998,-0.0004752324522,-0.1692361454,-0.175094288,0.2435140826
8846.887333,-0.09217419192,-0.2638773141,-0.1132687533,0.3015909963
8856.923332999999,-0.09464873359,-0.3222083335,-0.05855869532,0.3408895917
8866.960332999999,-0.05780425832,-0.3392578276,0.004565505981,0.3441773521
8876.997333000001,-0.01321733862,-0.3249891961,0.08488227546,0.33615127
8887.033333,0.0427887547,-0.3056340718,0.1386924469,0.3383469495
8897.070333,0.09041622654,-0.330920429,0.1831728011,0.3888903437
8907.106333,0.1187750763,-0.3853634885,0.1713801366,0.4381594324
8917.143333,0.1895469971,-0.3861167926,0.1765385503,0.4649517194
8927.180333,0.2656509939,-0.376269314,0.1395245057,0.4812651399
8937.216333,0.3210976548,-0.399162223,0.01859239161,0.5126205822
8947.253333,0.355020715,-0.4123601562,-0.1239726663,0.558076902
8957.290332999999,0.4000379898,-0.414812917,-0.2722282344,0.637344774
8967.326333,0.4166303413,-0.4212297611,-0.42253676,0.7277036941
8977.363333,0.4528843939,-0.446318592,-0.5518882799,0.8419532252
8987.399333000001,0.5145979545,-0.4722574985,-0.6799873263,0.9747927798
8997.436333,0.5481671119,-0.5025769196,-0.8804404038,1.152495574
9007.473333,0.5043260045,-0.5253228078,-1.144992998,1.356951634
9017.509333,0.501375061,-0.5405640139,-1.435949864,1.614168027
9027.546333,0.5074570423,-0.5484766123,-1.698450671,1.855552189
9037.583333,0.5093065166,-0.5555275138,-1.916489834,2.059353595
9047.619333,0.5400342196,-0.5898043671,-2.090615239,2.238342741
9057.656333,0.595929362,-0.6148383804,-2.258455471,2.415321749
9067.692333,0.5919170026,-0.620960269,-2.4312787,2.578191907
9077.729333000001,0.5722620258,-0.6402600275,-2.649821894,2.785493277
9087.766333,0.5857459974,-0.6748495241,-2.916556669,3.050380805
9097.802333000001,0.618316889,-0.670355281,-3.197427088,3.324940896
9107.839333,0.6966200235,-0.6279672799,-3.411992421,3.538546967
9117.876333,0.6922533229,-0.5989129769,-3.489026563,3.607106566
9127.912333,0.7173970811,-0.5154099134,-3.41184741,3.524345144
9137.949333,0.7656414342,-0.4321887954,-3.209428498,3.327675652
9147.985332999999,0.7551162998,-0.3362726778,-2.845966743,2.963580038
9158.022333,0.7630353302,-0.3759776841,-2.434727388,2.579046256
9168.059333000001,0.7528736003,-0.4651083272,-2.014542963,2.200347192
9178.095333,0.7336637427,-0.5464490537,-1.713210797,1.942153519
9188.132333,0.7142729138,-0.6879760116,-1.649320611,1.924514293
9198.169333,0.6237685405,-0.6923720214,-1.788125324,2.016397377
9208.205333,0.6910571288,-0.4628447969,-2.073214509,2.23383161
9218.242332999998,0.7707991169,-0.185004076,-2.39890793,2.526483137
9228.278333,0.7983500277,0.04283734141,-2.756183916,2.869799223
9238.315332999999,0.4799061316,0.3703913639,-3.028457758,3.088536231
9248.352332999999,0.1682629859,0.4125226357,-3.261125486,3.29141714
9258.388332999999,-0.3505934957,0.3215788807,-3.268726866,3.30316577
9268.425042,-0.7832611415,0.2103656795,-3.056923758,3.16267839
9278.462042,-0.9322405949,0.1298491911,-2.828799902,2.981281977
9288.498041,-0.954321143,0.09626059167,-2.775773258,2.93682007
9298.535042,-0.6971626452,0.1736452749,-2.741540149,2.834119056
9308.572042,-0.2688631618,0.6386728008,-2.416163063,2.51357003
9318.608042,-0.188305487,0.9151958151,-1.581329772,1.836748808
9328.645041,-0.2434970632,0.8036019967,-0.2670914555,0.8811383742
9338.681041,-0.3461116049,0.1884727174,1.504014378,1.554790808
9348.718042,-0.5713007435,-0.9440050466,3.579760147,3.745959527
9358.755042,-0.9862887481,-2.085145314,5.679763091,6.130277746
9368.791041999999,-1.253603567,-2.900832629,6.841324174,7.535918544
9378.828041,-0.9747688562,-2.959365889,6.892234712,7.563790062
9388.864042,-0.5638505137,-2.340964215,6.545597734,6.974445538
9398.901042,-0.05192678332,-1.703085905,6.010543004,6.247385468
9408.938042000002,0.2317459139,-1.042292649,5.675759502,5.775320429
9418.974041,0.146141215,-0.6826112643,5.755348878,5.797530172
9429.011042,-0.04355854064,-0.7083474916,6.204040233,6.244499078
9439.048042,-0.1195039317,-0.9928617494,6.786293689,6.859579993
9449.084042,-0.1604394114,-1.381044656,6.900868126,7.039531663
9459.121041,-0.3117823094,-1.655548773,6.542295227,6.75571438
9469.157042,-0.3728073603,-1.711294811,5.910867273,6.164889875
9479.194042,-0.2276686504,-1.485557642,5.06615628,5.284378296
9489.231042,-0.05965329409,-1.095592943,4.089979999,4.234597833
9499.267041,0.1960533401,-0.6333094423,3.130827302,3.200249577
9509.304042,0.4217909476,-0.2195035985,2.335236429,2.383153082
9519.341042,0.5857392731,0.05673641056,1.796476902,1.89040704
9529.377042,0.69113592,0.1901891676,1.511500568,1.672864235
9539.414041,0.7413216949,0.1344625711,1.619893329,1.786530838
9549.451041999999,0.6740538642,-0.1177170226,2.341068442,2.439017704
9559.487042,0.6155510098,-0.3804561031,3.377551736,3.454201155
9569.524042,0.5619583547,-0.6529250966,4.191339728,4.278952803
9579.560042000001,0.7177764192,-0.742619192,4.626056238,4.739945419
9589.597040999999,0.9169241059,-0.4652831224,4.731219581,4.841660555
9599.634042,1.002479104,-0.07287903808,4.506482432,4.617213404
9609.670042,1.061436433,0.1668978073,4.021873385,4.162927781
9619.707042,0.9635268532,0.2877170701,3.392827002,3.538706003
9629.744041,0.71467988,0.3730382522,2.693281909,2.81135062
9639.780042,0.4617142743,0.4363745613,2.058980048,2.154762554
9649.817042,0.3221606787,0.4392299028,1.492319947,1.588624951
9659.853042,0.2425311032,0.4338983385,1.027661015,1.14156746
9669.890041,0.1963298403,0.4248514168,0.5664262122,0.7347671648
9679.927042,0.1715002238,0.3673378017,0.03568614185,0.4069679201
9689.963042000001,0.2087183362,0.2883556226,-0.3830388182,0.5229063446
9700.000042,0.2994093818,0.1671187772,-0.8054223812,0.8753741347
9710.037041,0.3491890676,0.01766770927,-1.324582041,1.369949903
9720.073042,0.407743816,-0.1617504668,-1.872043394,1.922749256
9730.110042,0.5347369711,-0.3725187271,-2.488459792,2.57238138
9740.147042,0.5372216358,-0.5480259747,-3.061444826,3.156166025
9750.183041,0.6185970437,-0.7424695764,-3.564573174,3.693251317
9760.220041,0.7538511086,-0.9480857453,-4.020522094,4.199018454
9770.256041999999,0.8724414859,-1.111427057,-4.449543416,4.668496638
9780.293042000001,0.9657115922,-1.199000952,-4.803822119,5.044492949
9790.330042000001,1.049794919,-1.224780887,-5.112239356,5.360704135
9800.366041,1.213553794,-1.212450279,-5.350168408,5.618456237
9810.403042,1.340152884,-1.147259964,-5.484584202,5.761326153
9820.440042,1.35855758,-1.065800356,-5.605102918,5.86504798
9830.476042,1.333022789,-1.071545245,-5.767805786,6.016040438
9840.513041,1.264468717,-1.086619806,-5.878529246,6.110378862
9850.549042,1.168264186,-1.063369522,-5.992140062,6.19688135
9860.586041999999,1.048495741,-1.001049459,-6.128464386,6.297580414
9870.623042,0.8378741357,-0.8771628933,-6.20442615,6.321894626
9880.659040999999,0.618038196,-0.8015607338,-6.199082379,6.281169729
9890.696042,0.5685403461,-0.6783591691,-6.088253669,6.152255036
9900.733042,0.40253,-0.4194708455,-5.696140557,5.725731694
9910.769042,0.2986858254,-0.3501233064,-5.122749141,5.143380048
9920.806041,0.2776836866,-0.3622353751,-4.590051423,4.612688453
9930.842042,0.2431826292,-0.4532902638,-3.916615317,3.950251308
9940.879042,0.1967976907,-0.3468944009,-3.200316197,3.225071909
9950.916041999999,0.05772970632,-0.2719874753,-2.424602934,2.440493658
9960.952041,-0.1619937475,-0.3674844937,-1.793740405,1.838148925
9970.989040999999,-0.1445523803,-0.3563136806,-1.245693746,1.303690047
9981.026042,-0.1120462467,-0.2309432374,-0.966388042,0.9998974887
9991.062042,-0.1008625697,0.06829074623,-0.8966483009,0.9048840033
10001.09904,-0.2390365148,0.4921569986,-0.9882244688,1.129577163
10011.13504,-0.2244519509,0.7812119848,-1.192684643,1.443318226
10021.17204,-0.07390485898,1.035117896,-1.379889684,1.72656495
10031.20904,-0.1395138346,1.35753534,-1.505460395,2.031939298
10041.24504,-0.3151763257,1.601089852,-1.5548413,2.253964574
10051.28204,-0.456545628,1.600048756,-1.456365418,2.211241769
10061.31904,-0.507602638,1.509361949,-1.001434498,1.881144595
10071.35504,-0.307294279,1.505000803,-0.1640787184,1.54479093
10081.39204,0.003804198503,1.530922534,0.6592133385,1.666823477
10091.429039999999,0.3157224557,1.555827872,1.203009072,1.991861406
10101.465040000001,0.704438628,1.55193231,1.606043614,2.341816339
10111.50204,0.9349604273,1.331601769,2.057634019,2.623198816
10121.538040000001,1.034275093,0.7376059355,2.792600375,3.067964201
10131.57504,0.6367281631,0.2350087333,3.676465493,3.738589357
10141.61204,-0.1280797505,0.2030327229,4.00735241,4.014536094
10151.64804,-0.4782773897,0.004978757948,3.750377222,3.780754337
10161.68504,-0.5826291391,-0.2139509363,3.112650062,3.173928501
10171.72204,-0.6757828858,-0.1953331093,2.655288455,2.746888115
10181.75804,-0.3937924325,-0.2381680571,2.272879967,2.319004064
10191.79504,0.0512537688,-0.2809556423,2.198276512,2.21675047
10201.831040000001,0.3490194252,-0.06258245677,2.391900042,2.418039895
10211.868040000001,0.4196058431,0.08624876976,2.388696352,2.426804108
10221.90504,0.4686382547,0.09764367744,2.117051085,2.170497961
10231.94104,0.4818710884,0.1479915664,2.190152975,2.24741436
10241.97804,0.5475391209,0.05397023901,2.292799677,2.35788936
10252.01504,0.1649502459,-0.01126977727,2.690462966,2.69553827
10262.051039999998,0.03109315395,-0.1745265234,2.92970121,2.935059705
10272.08792,-0.2802947608,-0.3275882104,2.920070261,2.951726531
10282.12392,-0.427929647,-0.5251157798,2.311485039,2.408699535
10292.16092,-0.4276311466,-0.7006986026,1.266834939,1.509542213
10302.197919999999,-0.4895180771,-0.5987221384,0.40492787,0.872962042
10312.23392,-0.2764209804,-0.4337683842,-0.03057275176,0.5152652352
10322.270919999999,0.1939176446,-0.2656121099,-0.1896515161,0.3796334329
10332.30792,0.5316300166,-0.2009369346,-0.2221415699,0.6102073445
10342.34392,0.5694615018,-0.4596348582,-0.1013649917,0.7388000179
10352.38092,0.3656603086,-0.7141422285,0.2699156606,0.8464992898
10362.41792,0.04619329602,-0.8957712185,0.4592028952,1.007674151
10372.45392,-0.1530611023,-0.9309360811,0.702556994,1.176289088
10382.49092,-0.109197337,-1.002965299,0.8485660619,1.318304901
10392.52692,0.1033685401,-1.102952249,0.7141777503,1.318043465
10402.56392,0.2486516762,-1.12218491,0.5847677583,1.289604575
10412.600919999999,0.1554511517,-1.098686705,0.4682812822,1.204393995
10422.63692,-0.0367979899,-1.007774927,0.3811647856,1.07807745
10432.67392,-0.06745084852,-0.9621021791,0.3990040559,1.043740608
10442.71092,-0.00595071137,-0.7374293496,0.3856308889,0.8321950727
10452.74692,0.1540767637,-0.4272309047,0.1369546545,0.4743653364
10462.78392,0.5640282691,-0.752073555,0.1578654671,0.9532387036
10472.81992,1.01191534,-1.112731571,0.1031969243,1.50757879
10482.85692,0.6196069309,-1.167801232,0.04135033965,1.322642173
10492.89392,-0.184872002,-1.483539476,-0.3023963588,1.52529033
10502.92992,-0.6930693018,-1.537622858,-1.070412347,1.997601488
10512.96692,-0.9413297993,-1.280319934,-1.799268363,2.400559845
10523.003920000001,-0.9308548048,-0.8853377393,-2.081943233,2.446385335
10533.039920000001,-0.7357574844,-0.4628050724,-2.073372384,2.248199425
10543.076920000001,-0.3009898111,-0.03435473084,-1.49311049,1.52353341
10553.11392,0.2875049624,0.09139022648,-0.4964075589,0.5808887513
10563.14992,0.5208392724,-0.1903544976,0.3097351992,0.6351726349
10573.18692,0.3912208271,-0.7275820537,0.7121663082,1.090692546
10583.22292,-0.01889820099,-1.181895361,0.6477627361,1.347898493
10593.259919999999,-0.5079841688,-1.336341376,0.4117357832,1.487744113
10603.29692,-0.8179509178,-1.147126647,0.3137417114,1.443390838
10613.332919999999,-0.8836926252,-0.6956850538,0.3493290353,1.177676154
10623.36992,-0.832360796,-0.2477605605,0.2926607448,0.916438815
10633.406920000001,-0.74028703,-0.0007203769684,0.1878394639,0.7637467316
10643.44292,-0.669106535,0.09389575839,0.03571888626,0.6766060948
10653.47992,-0.6457141641,0.02539738119,-0.2893523902,0.7080371561
10663.51692,-0.6113296124,-0.1403749833,-0.6970623654,0.9377232919
10673.55292,-0.7446510994,-0.1472051159,-1.004802495,1.259286568
10683.589919999999,-0.9904566434,-0.1062050244,-1.102985432,1.486223648
10693.62592,-1.119749984,-0.1067450148,-1.271627317,1.697725112
10703.662919999999,-1.068365237,0.0007615998387,-1.436026463,1.789853866
10713.69992,4.242258159,-0.4242298213,8.865791616,9.837631128
10723.73592,7.96277102,-0.8742838705,14.59509232,16.64892833
10733.77292,-2.722854202,0.410803737,-9.615111718,10.00165327
10743.80992,-0.8193457711,0.3550745094,-4.944312,5.024303589
10753.84592,1.7727413,-0.3412888214,1.749216782,2.513732111
10763.88292,3.064322825,-0.7583142883,4.317844239,5.348728242
10773.91992,-1.531666738,-0.1124211994,-7.69090122,7.842742065
10783.95592,2.480460801,-1.2029965,3.651895493,4.575612205
10793.99292,0.2949750727,-0.8782571997,-1.153580219,1.47955849
10804.02892,0.3735622358,-0.9427566661,0.02719656944,1.014435079
10814.065920000001,0.04725631982,-0.8847164726,-0.2648513871,0.9247176077
10824.10292,-0.1184824231,-0.7293372416,-0.3269786382,0.8080135682
10834.13892,-0.2047168672,-0.5643401449,-0.5759881639,0.8319562247
10844.17592,0.2801365936,-0.7730010322,-0.1663953853,0.8388650255
10854.21292,0.5180238381,-1.260841251,1.161903146,1.791113697
10864.24892,-0.4758724299,-0.7301861112,1.869001672,2.062230244
10874.28592,-0.7669155425,-0.6547706971,0.7855324924,1.278258742
10884.32192,-0.3026080281,-1.155481953,0.1364272356,1.202215685
10894.35892,2.501487973,-1.054082463,14.22292406,14.47964436
10904.39592,-0.7836263001,-0.8562415557,-2.823805795,3.053047486
10914.43192,-2.768079199,-0.4260586111,-10.1002628,10.48136904
10924.468920000001,-2.538311398,-0.07945733842,-8.540941949,8.910500974
10934.50592,-2.814344708,0.1784207142,-8.955566257,9.38906476
10944.541920000001,-2.263862683,0.1245665606,-9.23493862,9.509189365
10954.57892,10.37447383,2.711519959,14.06311381,17.68483016
10964.61592,5.693230398,0.08160578817,6.106271864,8.349017184
10974.65192,-1.155674692,-1.279303688,1.461502782,2.260131036
10984.68892,-0.5336592928,-1.150265213,1.54972908,2.002389203
10994.724919999999,-0.7882736671,-0.7166521458,0.7522986728,1.304192841
11004.76192,0.3138294196,-0.3784442955,6.333230955,6.35228489
11014.798920000001,-1.385513098,-1.117847153,-8.790206414,8.968665319
11024.83492,-1.72574138,-0.6490060003,-9.018561235,9.205098525
11034.871920000001,2.67560753,1.418248881,6.329848341,7.016928499
11044.90892,1.240277763,0.5361172429,3.927467165,4.153397279
11054.94492,-1.037855928,-0.5826024612,4.021796202,4.194212113
11064.981919999998,-2.014933118,1.207932062,-5.983204347,6.427891536
11075.01892,1.867814103,1.201335672,4.527748171,5.043058637
11085.054919999999,-0.9272472189,-0.9771623408,0.6039969116,1.476294657
11095.091919999999,-2.001011921,-0.07209062328,-4.998731452,5.384845577
11105.127919999999,0.7866241676,0.2154639217,1.980105202,2.141499216
11115.16492,-0.5292149703,-0.5151429515,-1.227957387,1.432941063
11125.20192,-0.5660210001,-0.3001461675,-2.788289223,2.860948144
11135.23792,0.5645479403,0.04839526607,0.1430959851,0.5844081961
11145.27492,0.3670795375,-0.1208152246,-1.413024101,1.464916658
11155.31192,3.874917361,-0.9083993771,18.88815898,19.30292008
11165.34792,1.796088793,-0.3278132551,-11.81076283,11.95104661
11175.38492,-0.7208428453,0.6332680732,-2.840569178,2.998245506
11185.42092,-0.9752386799,-0.03163449649,4.925450052,5.021170126
11195.45792,0.7742475124,-0.4077132643,3.079074765,3.200998395
11205.49492,1.354009031,-0.3912707843,-1.733644477,2.234268662
11215.530920000001,0.4718708513,-0.03874990012,-4.524591259,4.549295519
11225.56792,1.211284929,0.07744607896,2.943999991,3.18439084
11235.60492,0.4143237974,-0.2327317545,-0.07132550597,0.4805367899
11245.64092,-0.2056210295,-0.06021988928,-1.026458243,1.048581407
11255.67792,0.2770404198,-0.1500746735,0.7807272506,0.8419078582
11265.71517,-0.06507691094,-0.09803354055,-0.5743883657,0.586316957
11275.75117,0.1658343084,-0.09908114232,0.273747341,0.3350458138
11285.78817,0.03523046559,-0.1222599072,-0.2136303627,0.2486495576
11295.82417,0.1090357163,-0.1116040875,0.05475449681,0.165355117
11305.86117,0.06058130203,-0.09617935192,-0.09208896875,0.1462906014
11315.89817,0.09578701288,-0.1315667741,0.01808134496,0.1637434058
11325.93417,0.07384134816,-0.1025474083,-0.07517531276,0.1470368773
11335.97117,0.08251467389,-0.1142572616,-0.02577569604,0.1432751889
11346.00817,0.07517891245,-0.1182881859,-0.03490846217,0.1444387917
11356.044170000001,0.07174181859,-0.1121578554,-0.05676769316,0.144737155
11366.08117,0.08037882306,-0.1185498488,-0.05632096589,0.1539054029
11376.11817,0.07739438592,-0.09647887554,-0.02713458896,0.1266268151
11386.15417,0.07038141819,-0.117838937,-0.06006786168,0.149825589
11396.19117,0.07758163386,-0.1062099215,-0.03342677772,0.1357085362
11406.22817,0.07897262251,-0.09518448472,-0.03672343791,0.1290169451
11416.26417,0.07957618307,-0.1191021549,-0.03628548145,0.1477644354
11426.30117,0.07577232718,-0.09286778133,-0.02941207945,0.1234136978
11436.33717,0.0761287835,-0.110670141,-0.03406353951,0.1385777634
11446.374170000001,0.07195711947,-0.121908453,-0.04964110672,0.1500124576
11456.411170000001,0.08579265039,-0.1113499895,-0.043810848,0.1472365084
11466.44717,0.09278232062,-0.1061460772,-0.04322729588,0.14745897
11476.484170000002,0.07826189345,-0.1065255249,-0.04204264998,0.138709033
11486.52117,0.08548907027,-0.1160371906,-0.04833659291,0.1520178837
11496.55717,0.07559367647,-0.117049636,-0.04191167235,0.1455046717
11506.59417,0.072345201,-0.1104175413,-0.04176783085,0.1384572614
11516.63017,0.07889839942,-0.1135319511,-0.02860750258,0.1411837475
11526.667169999999,0.06882496704,-0.1080847946,-0.02832098901,0.1312298645
11536.70417,0.08717188066,-0.1111954403,-0.04285248935,0.1476472098
11546.74017,0.07180776422,-0.1138959037,-0.03956986248,0.1403367589
11556.77717,0.07292400226,-0.1147031484,-0.04586439013,0.1434512622
11566.814170000001,0.08145465592,-0.1171172445,-0.02910860896,0.1455974623
11576.85017,0.08026934308,-0.1052848189,-0.03211232364,0.1362323818
11586.88717,0.06838216379,-0.1120818051,-0.03631179392,0.1362240718
11596.92417,0.06883948915,-0.1058872648,-0.03721752763,0.1316667478
11606.96017,0.08714940542,-0.1074217569,-0.0345324862,0.1425725967
11616.997169999999,0.07287981923,-0.115962931,-0.04232682467,0.1433542099
11627.03317,0.08071885692,-0.1099197605,-0.04129186749,0.142488266
11637.070169999999,0.07785364816,-0.1173032955,-0.02902616322,0.143748989
11647.10717,0.07572490535,-0.1194088779,-0.04086151242,0.1471815362
11657.14317,0.07142997927,-0.1004173042,-0.04596028447,0.1315227154
11667.18017,0.08495236896,-0.110987389,-0.03474707901,0.1440224462
11677.21717,0.06733202213,-0.1045439035,-0.04164328516,0.1311380653
11687.25317,0.08358726338,-0.1037644697,-0.04255194247,0.1398733841
11697.29017,0.07499194773,-0.09739677876,-0.0341828227,0.1275867944
11707.327169999999,0.07330820544,-0.1035817442,-0.03269470632,0.1310427966
11717.36317,0.07604548808,-0.1008467456,-0.03644861877,0.1314590589
11727.400169999999,0.07373660078,-0.09356816813,-0.05082692206,0.1295201312
11737.43617,0.0703482124,-0.1095090302,-0.05412709057,0.1409639692
11747.47317,0.06235481735,-0.1050775716,-0.02555057824,0.1248288883
11757.51017,0.0666315257,-0.1041800971,-0.0255605185,0.1262798201
11767.54617,0.0707722543,-0.1075118771,-0.04787290871,0.1373292798
11777.58317,0.06432874143,-0.1112014702,-0.04982587874,0.1377917709
11787.62017,0.06534940033,-0.1047341573,-0.03680880725,0.128820325
11797.65617,0.0750971565,-0.09713537168,-0.03053006709,0.1265185692
11807.69317,0.06945349247,-0.09785889152,-0.0351750952,0.1250497405
11817.73017,0.07480528907,-0.1071711306,-0.0333881861,0.1348934894
11827.76617,0.07259853618,-0.09126118574,-0.03639482439,0.1221627387
11837.803170000001,0.07069508476,-0.1004203374,-0.03266254663,0.1270782481
11847.84017,0.06444260682,-0.1075550003,-0.03207080841,0.1294197219
11857.876170000001,0.06829068228,-0.09965113621,-0.04136027992,0.1276896197
11867.91317,0.06394700504,-0.1026850006,-0.0401721257,0.1274646166
11877.949170000002,0.05933641154,-0.1064439928,-0.0440739727,0.1295903099
11887.98617,0.06814924818,-0.1112350186,-0.04064165711,0.1366356238
11898.02317,0.07661788938,-0.1028401711,-0.03346712351,0.1325384854
11908.05917,0.08304319823,-0.09894347694,-0.03751924396,0.1345127431
11918.09617,0.06199964012,-0.09590530023,-0.0361837399,0.1197958473
11928.133170000001,0.06235274342,-0.09559177984,-0.03364955664,0.1189871659
11938.16917,0.0664538343,-0.103561279,-0.04293844342,0.1303255942
11948.206170000001,0.06442072087,-0.1065074717,-0.04503993273,0.1323724531
11958.24317,0.05277697762,-0.0989403706,-0.03995870233,0.1190432871
11968.27917,0.06032849218,-0.09688383177,-0.04999603271,0.1246017942
11978.31617,0.07075653534,-0.08834090352,-0.04401900887,0.1214424789
11988.35217,0.05859353193,-0.0939772905,-0.03624162734,0.1165263432
11998.389169999999,0.06587932709,-0.1055682992,-0.04507501602,0.1323499475
12008.42617,0.07144271524,-0.09733541954,-0.04672685444,0.1294667694
12018.462169999999,0.05490837908,-0.1075402727,-0.04314309597,0.1282231144
12028.49917,0.07414517954,-0.09512473349,-0.04060774326,0.1272604078
12038.536170000001,0.07681836208,-0.1021473126,-0.03777476728,0.1332744059
12048.57217,0.06530037965,-0.1044697535,-0.03029793262,0.1268701451
12058.60917,0.05487087468,-0.08303557858,-0.03913541436,0.1069453171
12068.64617,0.05726088753,-0.09793296844,-0.03674799621,0.1192480221
12078.68217,0.06817889082,-0.09047583159,-0.03062011421,0.1173534348
12088.719169999998,0.07100598305,-0.08736752484,-0.03347297072,0.1174537092
12098.75517,0.06506500181,-0.1013456228,-0.03422960043,0.1252040545
12108.792169999999,0.06454893021,-0.09824356522,-0.04591350675,0.1261998914
12118.829169999999,0.06497513741,-0.0993794965,-0.03559200168,0.1239550055
12128.86517,0.06195934458,-0.08937377762,-0.03530197978,0.1143366183
12138.90217,0.05407791914,-0.09565207925,-0.03710350692,0.1159759106
12148.93917,0.06110280057,-0.09107732736,-0.04714025259,0.1193768621
12158.97517,0.06232250235,-0.08885085382,-0.05238929808,0.1205122694
12169.01217,0.06128258418,-0.09871170793,-0.04655670047,0.1251682179
12179.04917,0.0686518118,-0.07846287321,-0.03773149788,0.1108745222
12189.08517,0.06375679694,-0.1009339057,-0.04073521256,0.1261425385
12199.12217,0.05925390185,-0.09337075152,-0.02846833885,0.1141909298
12209.159169999999,0.05855956326,-0.09610655408,-0.03520783961,0.1179206689
12219.19517,0.06727794453,-0.08457332321,-0.04733730376,0.117982156
12229.23217,0.0730811142,-0.09677635264,-0.04420202672,0.129074904
12239.268170000001,0.06056835593,-0.09485956226,-0.03897169232,0.1191035478
12249.30517,0.0634033693,-0.09423771087,-0.04541941702,0.1223260268
12259.34217,0.06395020274,-0.09621465448,-0.03016110778,0.1194009237
12269.37779,0.06400712173,-0.09323644828,-0.03750579536,0.1191496186
12279.41479,0.0594088622,-0.09761487991,-0.04215491652,0.1217994855
12289.45179,0.06423852528,-0.09932051271,-0.04216368735,0.1255743959
12299.487790000001,0.05483140597,-0.09899131447,-0.03857700527,0.1195573032
12309.52479,0.05813712934,-0.0914832703,-0.0345406723,0.1137636699
12319.560790000001,0.07207622451,-0.09044385463,-0.04517266452,0.1241597463
12329.59779,0.0681622628,-0.0892300823,-0.03320282936,0.1170919704
12339.63479,0.0624909113,-0.09779873829,-0.03171471298,0.1203142977
12349.67079,0.07283357598,-0.09552804518,-0.03426468372,0.1249175959
12359.70779,0.06618442384,-0.09275292009,-0.03127909541,0.1181603316
12369.74479,0.06602303155,-0.07961598068,-0.04356234133,0.1122293306
12379.78079,0.05952114701,-0.08403245576,-0.03518795907,0.1088228516
12389.817790000001,0.05350291857,-0.08697985444,-0.03190065444,0.106984621
12399.85479,0.06130454779,-0.08986435901,-0.0452317214,0.1178123899
12409.890790000001,0.0600919449,-0.08811030395,-0.040150491,0.1139584548
12419.92779,0.06121090097,-0.08526431791,-0.04465226233,0.1140640296
12429.96479,0.05984000299,-0.0764672916,-0.03328410566,0.1026445533
12440.000789999998,0.05874498395,-0.07917024013,-0.04616669118,0.1088589153
12450.03779,0.0510930526,-0.08488655124,-0.0344944793,0.1049099409
12460.073789999999,0.06190673791,-0.08885118272,-0.03764554381,0.1146479997
12470.110789999999,0.06323122362,-0.08132121149,-0.0352563715,0.1088776323
12480.14779,0.06869075974,-0.08484784998,-0.04020370066,0.1163353586
12490.18379,0.06712198832,-0.08602259215,-0.04784367263,0.1191396856
12500.22079,0.05541077368,-0.08440594666,-0.03917049766,0.1083007182
12510.257790000001,0.05756579242,-0.09372812603,-0.04546619475,0.1190208256
12520.29379,0.07412901747,-0.08395457815,-0.03843784153,0.1184100928
12530.33079,0.06912164471,-0.09232300356,-0.03904244363,0.1217606306
12540.36779,0.06956846335,-0.08703836314,-0.03904829085,0.1180686951
12550.40379,0.06198363793,-0.07975185536,-0.05252904654,0.1138491569
12560.440789999999,0.0675946078,-0.0849278472,-0.04205785275,0.1164071871
12570.47779,0.06284711637,-0.09565189652,-0.0362270093,0.1200476636
12580.513789999999,0.0645547957,-0.07880003829,-0.02785262704,0.1056055705
12590.55079,0.06005817723,-0.08862811144,-0.0407334584,0.1145475509
12600.58679,0.06300331011,-0.08380006548,-0.0378946352,0.1114803635
12610.62379,0.05744974346,-0.08025818769,-0.02951440573,0.1030191723
12620.66079,0.06657805108,-0.07666163843,-0.05092398584,0.1135909152
12630.69679,0.05936584862,-0.08874578666,-0.04060131133,0.1142304036
12640.73379,0.05264171507,-0.09210059009,-0.04778812408,0.1163502199
12650.770789999999,0.06731568648,-0.0816122932,-0.03731459141,0.1121799749
12660.80679,0.05846696712,-0.09104472913,-0.04330623329,0.1165459514
12670.843789999999,0.07236309439,-0.08514733706,-0.03537916303,0.1172099467
12680.88079,0.06000435543,-0.090899974,-0.03074582934,0.1131752357
12690.91679,0.04956781553,-0.07962851565,-0.04093050957,0.1023375564
12700.95379,0.06342963609,-0.07362572752,-0.04138542295,0.1056258478
12710.99079,0.05887582454,-0.08554725006,-0.05306699038,0.1166224686
12721.02679,0.06011689606,-0.0827749024,-0.05232614815,0.1149075778
12731.06379,0.05909100208,-0.09121188641,-0.03946051955,0.115622175
12741.09979,0.06881238182,-0.08103550192,-0.04500309527,0.1154433846
12751.13679,0.06439259942,-0.07582245335,-0.04530539632,0.1093070456
12761.17379,0.06196580392,-0.08295448501,-0.03453365564,0.1091502671
12771.20979,0.0670824648,-0.08115515057,-0.03109549284,0.1097868172
12781.246790000001,0.05651962504,-0.07439946033,-0.03933246553,0.1013745064
12791.28379,0.065548128,-0.08770571318,-0.03379924536,0.1145916149
12801.319790000001,0.0497123788,-0.07692900237,-0.03754614115,0.09899042745
12811.35679,0.06202278687,-0.08301416315,-0.03919914901,0.1107914738
12821.39379,0.04720486432,-0.08958255976,-0.04893359363,0.1124625752
12831.42979,0.05793725506,-0.07861661844,-0.03486811638,0.1036970769
12841.46679,0.05484691023,-0.08567066286,-0.03561889887,0.1077791816
12851.50379,0.04943722162,-0.08505093109,-0.03861793578,0.1056837013
12861.53979,0.05585936476,-0.08276130762,-0.03472602904,0.1057147093
12871.576790000001,0.05692168507,-0.07702792995,-0.05104794681,0.1085323597
12881.61379,0.06587735365,-0.07664354861,-0.03279293954,0.1062517583
12891.649790000001,0.0533473735,-0.08243594661,-0.05629933119,0.1131867583
12901.68679,0.05992950194,-0.07762010671,-0.03265494525,0.1033574943
12911.72279,0.05260178042,-0.08413825382,-0.0420917666,0.1077864086
12921.75979,0.05351299589,-0.07680007126,-0.03895824373,0.1013885419
12931.79679,0.05736674954,-0.08466340687,-0.03088323891,0.106829822
12941.832789999999,0.05897461507,-0.07993962407,-0.03357880533,0.104861265
12951.86979,0.07067639194,-0.07396793582,-0.03627671063,0.1085467993
12961.906790000001,0.06799104902,-0.08400928617,-0.03867582321,0.1147874654
12971.94279,0.05626072129,-0.0881528059,-0.03808233082,0.1112944287
12981.979790000001,0.06822254394,-0.08304358196,-0.03763794243,0.113873468
12992.01679,0.06668504599,-0.08423765648,-0.03928978086,0.1143965253
13002.05279,0.05439657412,-0.09174796645,-0.05695597351,0.1209159193
13012.08979,0.06180893409,-0.07064452462,-0.04288991153,0.1032014424
13022.12679,0.0419974437,-0.06689865209,-0.03750521064,0.08744058414
13032.162789999998,0.05647905084,-0.07368639238,-0.02897587717,0.09725825962
13042.19979,0.05374608966,-0.07002537757,-0.04933997512,0.1011267957
13052.235789999999,0.05013347883,-0.08173760634,-0.04096033037,0.1042696056
13062.272789999999,0.05179469107,-0.08486977704,-0.03946753621,0.1069731531
13072.309790000001,0.05281133001,-0.08329830129,-0.04216894984,0.1072653901
13082.34579,0.06415871993,-0.06558697544,-0.03603697479,0.09857310101
13092.38279,0.05275410952,-0.07123070799,-0.04113165379,0.09771705468
13102.41979,0.05039438342,-0.07227586124,-0.05730271339,0.1051046857
13112.45579,0.06237542879,-0.07547015861,-0.03305547953,0.1033397488
13122.49279,0.05288777322,-0.06484865483,-0.04668183088,0.09582096808
13132.529789999999,0.06241763838,-0.070549215,-0.04444117785,0.1041545563
13142.56579,0.05316882329,-0.08708057273,-0.02962959588,0.1062443545
13152.602789999999,0.059214625,-0.07034397773,-0.04879852295,0.104095835
13162.63979,0.0581862825,-0.0692129435,-0.04012417853,0.09892433837
13172.67579,0.05179378658,-0.07350819848,-0.04911134899,0.1024596319
13182.71279,0.05031194681,-0.07245628439,-0.03040493667,0.09330415486
13192.74879,0.05434326396,-0.07067942519,-0.04747237444,0.1010069197
13202.78579,0.05632832972,-0.08823868688,-0.04897218525,0.1155734464
13212.82279,0.04619707843,-0.07649477351,-0.03250759542,0.09509134656
13222.85879,0.05100232939,-0.06614564035,-0.05107425928,0.09790333652
13232.89579,0.06453126979,-0.08105867151,-0.05002760768,0.115054572
13242.932789999999,0.05460772256,-0.08239848789,-0.03820570707,0.1059773099
13252.96879,0.05735861826,-0.07802491676,-0.02997867465,0.1013736635
13263.00579,0.06196900162,-0.06502410784,-0.0421081388,0.09920376563
13273.04279,0.04437308519,-0.08334665045,-0.02998569131,0.09906955392
13283.07879,0.05849344404,-0.07695666701,-0.02385663986,0.09956380295
13293.11579,0.054446111,-0.06762005232,-0.02955124319,0.09170674159
13303.15279,0.05820567881,-0.07938874327,-0.03599370539,0.1048142186
13313.18879,0.05591786432,-0.06303609107,-0.03749585509,0.09222958027
13323.22579,0.05035238396,-0.08357184134,-0.04228823304,0.1063386566
13333.262789999999,0.05249421906,-0.06409564309,-0.03331217229,0.08929499045
13343.29879,0.05424656563,-0.07386794843,-0.03526163399,0.09819646898
13353.33579,0.05264827492,-0.06467422508,-0.03347180128,0.08986076854
13363.371790000001,0.06256075812,-0.06939296465,-0.04231045246,0.1025641574
13373.40879,0.05230224766,-0.07737035751,-0.03467925131,0.09962102089
13383.44579,0.05126206454,-0.06842134014,-0.03947221398,0.09416652656
13393.48179,0.06048519756,-0.05843012966,-0.03932603359,0.09283897939
13403.51879,0.05916348014,-0.06579118945,-0.02795319915,0.09279105201
13413.55579,0.04463788183,-0.0696434813,-0.03483829558,0.08975779532
13423.59179,0.04968334372,-0.07167918943,-0.03992946625,0.09592029564
13433.62879,0.05032176831,-0.07684736062,-0.04607372046,0.1027647066
13443.665790000001,0.05757777007,-0.07892206237,-0.03305606425,0.1031338689
13453.701790000001,0.05869144538,-0.06308575585,-0.03904712141,0.09460008479
13463.738790000001,0.04876046123,-0.07169124931,-0.03710350692,0.0943074124
13473.77579,0.04656181678,-0.07496064685,-0.0397979039,0.0968037939
13483.811790000002,0.05077541174,-0.07722984161,-0.04234612048,0.1016650618
13493.84879,0.04738888716,-0.07347125139,-0.04354830801,0.09767387849
13503.88579,0.03949637943,-0.06494571861,-0.03906173944,0.08546186192
13513.92179,0.04311006834,-0.07058857407,-0.03772038817,0.09090683399
13523.95879,0.05896614575,-0.07244539395,-0.04985219121,0.1058800379
13533.994789999999,0.04567684983,-0.07027841583,-0.0384776026,0.09222774118
13544.031790000001,0.05052074723,-0.0717431068,-0.03773442149,0.09551599782
13554.068790000001,0.0456577002,-0.08423900865,-0.04283143938,0.104954125
13564.10479,0.04935620114,-0.06460672628,-0.02786841452,0.0859459842
13574.14179,0.05153133796,-0.06612429801,-0.04089484155,0.09327534318
13584.17879,0.05733651761,-0.07867790457,-0.04883419096,0.1089149536
13594.21479,0.03676767575,-0.07410384703,-0.02922730744,0.08773527013
13604.251789999998,0.05606272909,-0.08258976493,-0.02653992712,0.1032882694
13614.28879,0.045999607,-0.06376925882,-0.02893845499,0.08378494132
13624.324789999999,0.04917885692,-0.05289804239,-0.03582647502,0.08062443283
13634.361789999999,0.05251884132,-0.07292333074,-0.04915461838,0.1024315253
13644.398790000001,0.04375328947,-0.05937880386,-0.03897753954,0.08342326579
13654.43479,0.03849014671,-0.07688723132,-0.04481890798,0.09696325204
13664.47179,0.05143857736,-0.07224655207,-0.0386863482,0.09675807493
13674.50779,0.03268290225,-0.06791226692,-0.0186327374,0.0776365056
13684.54479,0.03983213752,-0.0606674571,-0.04034344912,0.08303453147
13694.58179,0.04307870351,-0.06978936933,-0.04483937323,0.09347138685
13704.61779,0.04596086006,-0.06799420103,-0.0485856843,0.09537389973
13714.65479,0.04852759587,-0.06149640955,-0.05307693064,0.09462503112
13724.691789999999,0.03412512713,-0.06482789721,-0.02179608107,0.07643461067
13734.72779,0.05223504122,-0.07554818239,-0.03288006306,0.09755575811
13744.76479,0.04464735615,-0.07140601482,-0.03408049643,0.09084979692
13754.80179,0.04566006649,-0.06636096407,-0.03483186364,0.08776034383
13764.83779,0.04717128851,-0.07284746312,-0.04621229947,0.09832324224
13774.87479,0.05751991918,-0.07166961461,-0.04367051482,0.1017457057
13784.91179,0.04808520832,-0.07443545725,-0.0430735141,0.09852995571
13794.94779,0.0442610836,-0.06574390009,-0.03828815281,0.08801867169
13804.98479,0.04407266621,-0.06591189791,-0.02961030006,0.08463774609
13815.021789999999,0.05668561287,-0.06123693936,-0.0254248631,0.08723327984
13825.05779,0.04281375155,-0.05020382814,-0.03515696883,0.07476265203
13835.09479,0.04628042866,-0.06600358956,-0.03051778793,0.08619563383
13845.130790000001,0.05728251309,-0.07724146295,-0.03156970203,0.1012135168
13855.16779,0.05179424339,-0.0687734887,-0.02827888906,0.09062081418
13865.20479,0.03687124455,-0.06345270518,-0.03277130485,0.08037221467
13875.24079,0.05357103864,-0.06382897351,-0.03980842888,0.09235098835
13885.27779,0.04255597156,-0.07569129299,-0.05283485591,0.1016449927
13895.31479,0.03799680616,-0.0610103232,-0.04864824951,0.08679094996
13905.35079,0.04285261726,-0.06015871279,-0.03742451906,0.08280103959
13915.38779,0.03106240125,-0.05342359744,-0.06003160894,0.086155369
13925.42479,0.04509300535,-0.06021744076,-0.04626317024,0.08831647765
13935.460790000001,0.04451815096,-0.05426267289,-0.04940955698,0.08583477008
13945.49779,0.05401031985,-0.0669530312,-0.03563819468,0.09311231904
13955.53479,0.04120215842,-0.06301997468,-0.04132695079,0.08588976614
13965.57079,0.05502802773,-0.05586448107,-0.0426776576,0.0892765733
13975.60779,0.04272383234,-0.07148498878,-0.05584792614,0.1002717324
13985.64479,0.03905226513,-0.06511210844,-0.04177952528,0.08666138015
13995.68079,0.05166186791,-0.05379825778,-0.03055462539,0.08060264431
14005.71779,0.04838877018,-0.0576243468,-0.0396868068,0.08507103536
14015.75479,0.0422965836,-0.06697627388,-0.03699416399,0.08742648578
14025.790790000001,0.04610177795,-0.06326106269,-0.04657775044,0.09108689708
14035.827790000001,0.04294991858,-0.06751757987,-0.04148950338,0.09013710661
14045.86379,0.04432269864,-0.05008271769,-0.03954471946,0.07769533488
14055.900790000002,0.04719807607,-0.06115741722,-0.04149476588,0.08769095541
14065.93779,0.05486835307,-0.07095534068,-0.03940087795,0.09796747278
14075.97379,0.05093620104,-0.07061495963,-0.0419455862,0.0966457516
14086.01079,0.02441284711,-0.05285575971,-0.08310939968,0.1014735963
14096.04779,0.006577487206,-0.05630956382,-0.1245714211,0.13686515
14106.083789999999,0.0558892221,-0.06405723419,0.006254766583,0.08524116672
14116.12079,0.06633549213,-0.06542127997,0.06403051972,0.1130497627
14126.157790000001,0.0361899617,-0.06120445076,-0.09328823268,0.1172961742
14136.19379,0.02756451462,-0.06284517948,-0.08146574736,0.1065175434
14146.230790000001,0.02958186798,-0.05654546242,-0.04794073641,0.07981723148
14156.26779,0.04547986262,-0.07054219835,-0.02833443761,0.08858589056
14166.30379,0.04993493845,-0.06736529645,-0.005580582619,0.08404001514
14176.34079,0.06056131186,-0.06317953058,-0.007830591202,0.08786719374
14186.37779,0.04007664249,-0.06425892659,-0.03237895668,0.08236348557
14196.413789999999,0.03220622627,-0.04346575264,-0.09045701087,0.1053991626
14206.45079,0.03585727341,-0.06156412762,-0.06680736244,0.0976683651
14216.487790000001,0.04428418924,-0.06851189889,-0.04436048627,0.09285915382
14226.52379,0.1197862883,-0.07457345154,0.2349481416,0.2740631018
14236.56079,0.02047249985,-0.05259486426,-0.1283504766,0.1402112258
14246.59679,-0.01372029967,-0.04739197522,-0.2680194086,0.2725227501
14256.63379,0.1081755818,-0.07394728784,0.1934709173,0.2336688977
14266.670789999998,-0.009070849596,-0.03860605862,-0.246917392,0.2500817997
14276.70667,0.07864576316,-0.06377159771,0.1047008282,0.1456510768
14286.74367,0.009540161742,-0.05130730737,-0.1496244013,0.1584642419
14296.78067,0.04225012564,-0.06371290628,-0.008618795872,0.07693303052
14306.81667,0.037817589,-0.05815724742,-0.07388015449,0.1013445247
14316.85367,0.04994166275,-0.06707841743,-0.02118914008,0.08627087237
14326.890669999999,0.0496445511,-0.06431641202,-0.04469143867,0.09272813489
14336.92667,0.05343177441,-0.05915997181,-0.03017397165,0.08523687785
14346.96367,0.0556498243,-0.07504992653,0.05454282761,0.10818648
14357.00067,-0.09743143265,-0.218891797,-0.1000879598,0.2596615154
14367.03667,-0.4888386672,-0.7834393354,-0.1261402291,0.9320149098
14377.07367,-0.3675658431,-0.6219879171,0.01231014311,0.7225822844
14387.11067,-0.2042492179,-0.2209028372,-0.03590190411,0.302992992
14397.14667,0.2739934905,0.1672526602,-0.1242159104,0.3442026694
14407.18367,0.9062292561,1.040763967,-0.1333445835,1.386442165
14417.21967,0.2986502305,0.3119584933,0.1811479104,0.4683210727
14427.25667,-0.02565807564,-0.1879069262,-0.06733653545,0.2012499907
14437.293670000001,0.01748354025,-0.04274457168,-0.1055042356,0.1151690771
14447.329670000001,-0.03247276794,-0.03658014458,-0.2036678767,0.209459284
14457.366670000001,-0.09641258273,-0.0812753474,-0.2961398381,0.3218693398
14467.40367,0.1006644221,-0.2841562437,-0.3911167467,0.4938121163
14477.439670000002,0.7144905033,-0.9068193132,-0.05451417625,1.155763705
14487.47667,1.204441567,-0.8297534495,0.5376193196,1.558269812
14497.51367,0.9808054485,-0.4377020985,0.1375025386,1.082806263
14507.54967,0.4919935324,0.1026556732,-0.09803032458,0.5120603164
14517.58667,0.0005855986476,0.612427281,-0.1087149417,0.6220019743
14527.62367,-0.7202654327,0.6323354423,-0.1173074251,0.9656041825
14537.659670000001,-1.701436113,0.329719082,0.5008590442,1.804012002
14547.696670000001,-1.362480184,0.3488323874,0.1033273172,1.410217296
14557.73367,0.3274755053,0.4265551127,0.006039589047,0.5377973107
14567.76967,0.261258803,-0.512880883,-0.03849339008,0.5768749461
14577.80667,-0.4948819107,-1.018256353,-0.1499951148,1.142038809
14587.84367,-0.9383298853,-1.020887089,0.2044823939,1.401601395
14597.879669999998,-0.5771466801,-0.3311883411,0.2849295563,0.7238569331
14607.91667,-0.4019326338,0.5273271967,0.4974407619,0.8288975366
14617.95367,-0.1715351244,0.760017436,1.109177633,1.355479924
14627.989669999999,0.9487127861,0.7170797235,1.441878356,1.869029822
14638.026670000001,1.297006426,0.7188397354,1.42930158,2.059577442
14648.063670000001,0.34621426,0.7626352344,-0.01708556414,0.8377163787
14658.09967,0.06448602696,1.138219218,-0.6035840982,1.289967131
14668.136670000002,-0.05352099926,1.200126833,-0.5221487564,1.309888635
14678.17267,-0.6300596329,0.3253970394,0.7628371096,1.041527162
14688.20967,-1.394845693,-0.2426696091,1.599322824,2.135957991
14698.24667,-1.869989852,-0.7646563245,1.501960251,2.517428437
14708.282669999999,-2.210103675,-1.570157789,1.42556404,3.063035516
14718.319669999999,-2.170960659,-1.739669302,1.470119823,3.146549183
14728.356670000001,-2.092947108,-1.514911249,1.065636342,2.79481028
14738.39267,-1.834589346,-0.7858081886,0.5026933157,2.058133414
14748.42967,-1.742457401,-0.2568759312,0.07737562001,1.762988946
14758.46667,-2.516312126,-1.003059732,0.1959103757,2.715941166
14768.50267,-3.438493756,-1.830918026,1.54033085,4.189047536
14778.53967,-4.316795541,-2.486084945,2.836326438,5.732372088
14788.576669999999,-4.861756332,-2.381714631,3.131713155,6.254347807
14798.61267,-5.225628562,-1.680630989,2.402388192,5.99192652
14808.649669999999,-5.039502332,-1.443139747,1.397215569,5.4250758
14818.68667,-5.285145616,-1.126052259,0.0652011323,5.404165899
14828.72267,-5.423469104,-1.14295846,-0.4491047537,5.5607613
14838.75967,-5.612035961,-0.8219286324,-1.518017875,5.871532387
14848.79667,-5.593195063,-0.3981658575,-2.023037798,5.961128164
14858.83267,-5.309293447,-0.2210469711,-2.849770941,6.029813686
14868.86967,-4.572591053,-0.07370634601,-3.019468834,5.480074233
14878.906669999998,-3.740835736,0.121624863,-3.030568603,4.81591016
14888.94267,-3.241996028,0.5150421967,-2.411237369,4.073066701
14898.979669999999,-2.69995095,0.6480340469,-2.437954466,3.695037921
14909.01567,-2.232180423,0.7320273994,-2.049925634,3.117801895
14919.05267,-1.831767188,0.9537437305,-2.116985596,2.957469552
14929.08967,-1.744018607,1.330451768,-2.069835404,3.01594453
14939.12567,-1.697565402,1.841988998,-2.046355909,3.234536175
14949.16267,-1.55275209,2.236311773,-2.017240283,3.388419655
14959.19967,-1.35838304,2.281914792,-1.729616915,3.169213511
14969.23567,-1.203431241,2.387204435,-1.139090234,2.905945342
14979.27267,-1.14122973,2.609871085,-0.1622947329,2.853098659
14989.30967,-1.005345116,2.756693501,0.6983125001,3.016242399
14999.34567,-0.7714477193,2.569995413,1.217908362,2.946745457
15009.38267,-0.7530862927,2.344991631,1.355560589,2.811346515
15019.41967,-0.8405501139,2.390703409,1.214811677,2.810294414
15029.455670000001,-1.021538395,2.443682106,1.212398531,2.912908019
15039.49267,-1.225527869,2.295306963,1.688023331,3.101576273
15049.52967,-1.182576562,2.104601194,2.356812655,3.373781172
15059.56567,-0.7075405759,1.978245495,2.791412221,3.493715943
15069.60267,-0.07319018304,1.742271751,3.343748397,3.771143196
15079.63967,0.5146204662,1.588187679,3.727293877,4.084102591
15089.67567,0.9725252795,1.448226971,4.021029632,4.383131994
15099.71267,1.194982599,1.215489077,4.207357006,4.539520909
15109.74967,1.293380129,0.8775811154,4.298545796,4.573890765
15119.785670000001,1.352660955,0.5047772634,4.329988321,4.564349965
15129.82267,1.418726891,0.2361934523,4.315365604,4.548730992
15139.858670000001,1.505153416,-0.07712068141,4.13858381,4.40446482
15149.89567,1.558420966,-0.5588374034,3.916463582,4.252018596
15159.93267,1.56479677,-1.059258783,3.613816378,4.078024879
15169.96867,1.599898775,-1.359833735,3.25990868,3.877606024
15180.00567,1.62280992,-1.631199359,2.835569516,3.651681512
15190.04267,1.816028822,-1.770666708,2.398647436,3.490949841
15200.07867,2.092871094,-1.625564543,2.043354387,3.346321361
15210.115670000001,2.083143082,-1.418697216,1.92826598,3.173388816
15220.15267,1.828143668,-1.184024186,2.122000022,3.040872677
15230.18867,1.400042698,-1.077041482,2.55744875,3.10816377
15240.22567,1.017159415,-0.9261344938,2.91050597,3.219220927
15250.26267,0.6985469735,-0.7586192206,3.112534872,3.278924264
15260.298669999998,0.5108484274,-0.7324295416,3.288658855,3.407740632
15270.33633,0.5824236095,-0.7038315408,3.405179245,3.525598075
15280.37333,0.9368274432,-0.5997705442,3.198672545,3.38657296
15290.409329999999,1.550381629,-0.4418080133,2.733133607,3.173152506
15300.446329999999,2.146088943,-0.1464065324,2.177123625,3.060555489
15310.483330000001,2.500179366,0.3122378075,1.732259856,3.057632012
15320.51933,2.490356044,0.6951472561,1.334900622,2.909821748
15330.55633,2.303010669,0.8929351728,0.9798167574,2.657297922
15340.593330000002,1.969124715,0.9698950557,0.7675733542,2.325363932
15350.62933,1.59644424,1.045890294,0.8889685678,2.105418208
15360.66633,1.309635388,1.142973224,1.295074067,2.167659909
15370.70233,1.01815695,1.380286856,1.881424667,2.545897515
15380.73933,0.9409555775,1.612758117,2.516203076,3.133315187
15390.776329999999,1.08717456,1.694887816,2.897772489,3.528693615
15400.81233,1.26516439,1.55189445,3.092220768,3.683862999
15410.84933,1.474750233,1.299267983,3.207932196,3.762155567
15420.88633,1.624247165,1.015888816,3.102863578,3.646638359
15430.92233,1.725808039,0.9732529655,2.704359459,3.352490836
15440.95933,1.70129768,1.22689524,2.203427032,3.042166401
15450.99633,1.674880545,1.51091994,1.682234588,2.813897139
15461.03233,1.618070751,1.731692092,1.36389945,2.734434524
15471.06933,1.451381836,1.758320604,1.273014861,2.611276971
15481.106329999999,1.204144017,1.584753609,1.352779069,2.40653652
15491.14233,0.992291792,1.386830037,1.403282786,2.208425487
15501.179329999999,0.8329931724,1.340992544,1.453969083,2.146197736
15511.21633,0.5916575325,1.276141952,1.447391988,2.018301386
15521.25233,0.3680962586,1.122843453,1.246101297,1.717277123
15531.28933,0.276118387,0.9388274834,1.034815376,1.424247615
15541.32633,0.3632524252,0.9357550639,0.7664331472,1.262936908
15551.36233,0.6321857536,1.217664241,0.4630372068,1.448022267
15561.39933,0.8888089389,1.496258924,0.2857855886,1.763645514
15571.436329999999,1.000829896,1.567252893,0.3074805129,1.884804068
15581.47233,1.053254862,1.546519835,0.2349115965,1.885802976
15591.509329999999,1.115319548,1.390338366,0.1899494317,1.792500838
15601.54633,0.8142399824,1.047568153,0.3217714003,1.365255514
15611.58233,0.2179631495,0.5216958895,0.5721056128,0.8043502768
15621.61933,-0.3716899574,0.1059068164,0.7295380935,0.8255879772
15631.65633,-0.8167805976,-0.134098582,0.6943349317,1.080376773
15641.69233,-1.08456027,-0.2692122406,0.4894730535,1.219971344
15651.72933,-1.165235474,-0.472919586,0.3271239415,1.299398599
15661.76533,-1.076179456,-0.6509827977,0.08553482473,1.26065738
15671.80233,-0.9869731647,-0.80401788,-0.1475989258,1.281540566
15681.83933,-0.9720066315,-0.9164861494,-0.2594760418,1.360908362
15691.87533,-1.069031235,-1.038994673,-0.2178786573,1.506588471
15701.912330000001,-1.313507414,-1.252783495,-0.003788995743,1.815153594
15711.94933,-1.600380585,-1.525718658,0.4418761334,2.254837014
15721.985330000001,-1.867512386,-1.813025692,0.9727471814,2.778651067
15732.02233,-2.073651296,-2.232264038,1.472827084,3.384117618
15742.05933,-2.128924441,-2.718816115,1.845582989,3.915412738
15752.09533,-2.013595129,-2.872803708,1.951074507,4.01425687
15762.13233,-1.771126299,-2.774623695,1.809198982,3.756145095
15772.16933,-1.460495306,-2.508601111,1.581859822,3.305814055
15782.20533,-1.041461613,-2.250942383,1.252026865,2.778300772
15792.242330000001,-0.6398859519,-1.940530661,0.8475917695,2.212131345
15802.27933,-0.3219833618,-1.476625435,0.5035630891,1.593007139
15812.315330000001,-0.008163882494,-1.008630667,0.2156001435,1.031448444
15822.35233,0.2039146292,-0.6980148768,0.05474294856,0.7292480612
15832.38933,0.2928034168,-0.7250132257,0.02922292203,0.7824525529
15842.42533,0.4185454506,-0.9219456947,0.1991808696,1.031909481
15852.46233,0.6331751025,-1.056133447,0.5143036933,1.334479995
15862.49933,0.855416075,-1.199657448,0.7879041231,1.670840376
15872.53533,1.070892404,-1.249368721,0.9778044382,1.914114485
15882.57233,1.318593907,-1.251634517,1.147812818,2.150058865
15892.609330000001,1.652789179,-1.257786958,1.329868509,2.466229988
15902.645330000001,2.047556342,-1.392090484,1.536826321,2.914144477
15912.682330000001,2.379807415,-1.478724586,1.67774071,3.265719465
15922.71933,2.492247618,-1.447071853,1.733506629,3.363087922
15932.755330000002,2.334447055,-1.372443255,1.812070549,3.258349769
15942.79233,2.102357617,-1.273816515,1.933800516,3.127634969
15952.82933,1.705138131,-1.208362783,2.178738041,3.019029002
15962.86533,1.243574131,-1.271902721,2.455560433,3.032159328
15972.90233,0.787104224,-1.284211695,2.722251061,3.111170773
15982.939330000001,0.3684622943,-1.260079651,2.795583917,3.088503622
15992.97533,0.0117295146,-1.096178688,2.607697967,2.828751312
16003.012330000001,-0.339751296,-0.7697362393,2.17888656,2.335695071
16013.04833,-0.5793561602,-0.4383832991,1.552505045,1.714090252
16023.08533,-0.7111722815,-0.1029139191,0.8779782875,1.134549762
16033.122330000002,-0.7663816917,0.1478263825,0.3535684128,0.8568571405
16043.15833,-0.820328688,0.3246397519,-0.06303561598,0.8844792896
16053.19533,-0.7724505168,0.1716941321,-0.4521078837,0.9113507637
16063.232330000003,-0.6798288667,-0.0368263489,-0.6787447929,0.9613625549
16073.26833,-0.632084012,-0.1934761798,-0.8288821413,1.060192829
16083.305330000001,-0.6091635114,-0.352336843,-0.9199864389,1.15827306
16093.34233,-0.4936272079,-0.6060872912,-0.9767371751,1.251009646
16103.378330000001,-0.3477830315,-0.5479782468,-0.841263328,1.062523968
16113.415329999998,-0.5013630742,-0.08805731356,-0.2161024193,0.5530092931
16123.45233,-0.7852600121,0.06992919087,0.6938594069,1.05022105
16133.488329999998,-0.9508899969,-0.08704632998,1.679610503,1.932061151
16143.525329999999,-0.7904172564,-0.2742297363,2.31087342,2.457660951
16153.56233,-0.2886425382,-0.3387870902,2.519036636,2.558053319
16163.598329999999,0.2930864221,-0.3459750724,2.361188419,2.404331331
16173.63533,0.7392400861,-0.2366602063,1.766557285,1.929561763
16183.67233,0.9258709306,-0.06242078125,0.8731082878,1.274147329
16193.70833,0.9079129618,0.1101434165,0.03246067151,0.9151454604
16203.74533,0.8165227354,0.21530559,-0.5546040192,1.010272979
16213.78233,0.5960692567,0.2897079009,-0.9514235553,1.159498171
16223.81833,0.4133332425,0.1569696736,-0.9906294286,1.084818193
16233.85533,0.3580957657,-0.02838472366,-0.9608907822,1.025840809
16243.89233,0.1753322697,0.01318313241,-0.6161430404,0.6407397646
16253.92833,0.0726873225,-0.2285010016,0.002225011736,0.2397938808
16263.96533,0.003471491933,-0.5979163921,0.5638554838,0.821857086
16274.00179,-3.683745861e-05,-0.9525371575,0.8656253135,1.287103034
16284.037789999998,0.008800059557,-1.340558388,0.8175954071,1.570234531
16294.07479,0.09131596684,-1.577785774,0.2653924008,1.602554112
16304.11179,0.2250669318,-1.505122426,-0.3827099124,1.569240427
16314.147789999999,0.352943784,-1.402492096,-0.8422881988,1.673619672
16324.184790000001,0.3623987317,-1.287625299,-0.8947865474,1.609333625
16334.221790000001,0.1866875625,-1.29731589,-0.4747950804,1.394026948
16344.25779,-0.02562951565,-1.45049189,0.3270134291,1.487118481
16354.294790000002,-0.02274040639,-1.817353216,0.9540527558,2.052682757
16364.33079,0.1877225196,-2.043164499,1.286571046,2.421781569
16374.36779,0.5047515357,-2.095385397,1.448709366,2.596954544
16384.40479,0.6703867829,-2.34413823,1.566921209,2.898214029
16394.44079,0.5240847695,-2.432374468,1.772475836,3.054960064
16404.47779,0.106364361,-2.34287757,1.964257639,3.059198712
16414.514789999997,-0.2943008888,-2.337861829,1.960735276,3.065402709
16424.55079,-0.5350412822,-2.328196381,1.760991905,2.967803911
16434.587789999998,-0.6067193753,-2.239347355,1.301812398,2.660357212
16444.624789999998,-0.5767763686,-2.023351793,0.773983072,2.241801341
16454.660789999998,-0.593733294,-1.694411414,0.3893285219,1.83715159
16464.69779,-0.6437047684,-1.573803821,-0.04880904794,1.7010575
16474.73479,-0.5934163749,-1.340830284,-0.4076688986,1.521894469
16484.77079,-0.5984443957,-1.021764098,-0.6019616421,1.328343098
16494.80779,-0.8444268179,-0.8180623072,-0.6449000855,1.34096186
16504.84479,-1.134311305,-0.7702572262,-0.4943529935,1.45751268
16514.88079,-1.457079363,-0.670693177,-0.2999984157,1.631842105
16524.91779,-1.743211107,-0.7029142588,-0.1303367758,1.884107506
16534.95479,-1.851056567,-0.8009568626,-0.02572204784,2.017078069
16544.99079,-1.693657708,-0.7854032689,0.1389849539,1.872071458
16555.02779,-1.363594079,-0.8360746551,0.1937113841,1.611190163
16565.06479,-0.9727398723,-0.8875383389,0.2178953218,1.334700541
16575.10079,-0.6418652344,-0.7837245333,0.192405847,1.031132937
16585.13779,-0.4813667661,-0.617850135,0.1967646539,0.8075698619
16595.17479,-0.3602487105,-0.5610140294,0.2275680783,0.7044878316
16605.21079,-0.2334354669,-0.4934731337,0.2610533282,0.6051088258
16615.24779,-0.04493292868,-0.5077678218,0.1695362172,0.537205415
16625.284789999998,0.1032244062,-0.4546040601,0.06454975247,0.4706238413
16635.32079,0.2421367085,-0.1864703384,-0.06366828471,0.3121778711
16645.35779,0.4087139422,-0.01215928495,-0.1391242638,0.431914917
16655.39479,0.5290473014,-0.02522576541,-0.09855101913,0.5387389811
16665.43079,0.7925900817,0.01459494263,-0.03499763221,0.7934966189
16675.46779,1.126918085,0.1081939548,-0.1976592779,1.149225606
16685.50479,1.310396111,0.2883376059,-0.4336289281,1.410074675
16695.54079,1.384562779,0.6099242342,-0.5345778903,1.604616833
16705.57779,1.335142697,0.7759953913,-0.3830952439,1.591080399
16715.61479,1.184441823,0.6070596832,-0.1391897526,1.33820689
16725.65079,1.030616198,0.4375392535,0.1082784471,1.124870911
16735.68779,0.8407541817,0.4417875481,0.5723441792,1.108883083
16745.72479,0.6327757376,0.5318764767,0.9343333134,1.247508101
16755.76079,0.5857541835,0.7146575144,1.114371715,1.447642098
16765.79779,0.6872215015,0.7876889455,1.044841304,1.477978558
16775.83479,0.9915293151,0.7918185416,0.7332692018,1.465534274
16785.87079,1.336284658,0.7805199668,0.5621103823,1.646461718
16795.90779,1.463211923,0.9437739354,0.4285930136,1.793150954
16805.94479,1.580732771,1.16443499,0.4296311867,2.009778072
16815.98079,1.745288038,1.13111317,0.2590746304,2.095845176
16826.01779,1.680243026,1.154593249,0.08852099776,2.040622004
16836.05479,1.441438646,1.196335352,0.1769300213,1.881559958
16846.090790000002,1.236130625,1.034561314,0.07320597053,1.61359696
16856.12779,1.075957262,0.9183905876,-0.2711286655,1.440359696
16866.163790000002,1.232366772,0.77780949,-0.6259128606,1.58602723
16876.20079,1.595163699,0.7554889137,-1.153266516,2.108396164
16886.23779,1.834404282,0.9440391067,-1.385253628,2.484990245
16896.27379,2.090007713,1.02144981,-1.697036229,2.879483273
16906.31079,2.138716189,1.156221406,-1.790403984,3.019354451
16916.34779,2.13195096,1.22372488,-1.709484951,2.994170382
16926.38379,2.096716223,1.081977263,-1.605657405,2.853949793
16936.42079,2.042096797,0.983898114,-1.624376681,2.788694037
16946.45779,1.94282277,1.085254627,-1.688104315,2.793212147
16956.49379,1.933398812,1.387529949,-1.839215956,3.007654511
16966.53079,2.195984403,1.533060714,-1.914116157,3.291878387
16976.56779,2.291027386,1.449627964,-1.622342727,3.15946572
16986.60379,2.100266068,1.248731959,-0.8110494491,2.574538846
16996.64079,1.672625858,0.8694806752,0.05653351218,1.885966581
17006.67779,1.175801978,0.2635398567,0.7777948719,1.434199571
17016.71379,0.6920688432,-0.1963281593,1.218027938,1.414601035
17026.750790000002,0.2871485746,-0.3978226259,1.505260712,1.58320149
17036.787790000002,0.1713842297,-0.4773011971,1.678117563,1.753073741
17046.823790000002,0.1993368441,-0.3878542927,1.4690185,1.532377722
17056.860790000002,0.3849280536,-0.3300434563,0.9430076578,1.070682835
17066.89779,0.7507795662,-0.1183847746,0.1743926221,0.7798061929
17076.93379,1.046449873,0.1346096286,-0.5800739059,1.204019445
17086.97079,1.05967452,0.2691713101,-1.103562259,1.553451944
17097.00779,0.7011811441,0.2659389693,-1.256516065,1.463287789
17107.04379,0.08631075025,0.05009718955,-1.034063424,1.038867864
17117.08079,-0.4528797162,-0.34264099,-0.7843691888,0.9683686848
17127.11779,-0.8777758276,-0.6858976918,-0.6253942126,1.27752259
17137.15379,-1.004378572,-0.8465321079,-0.6460606116,1.463826232
17147.19079,-0.9716043431,-0.793846356,-0.817129384,1.497300059
17157.22779,-0.8613878363,-0.6018503988,-1.023713852,1.46703884
17167.26379,-0.5705590242,-0.3078333923,-1.115217222,1.289964515
17177.30079,-0.2429605812,0.009917462468,-1.052495601,1.080219974
17187.33779,-0.1615802032,0.1981130219,-0.7398563826,0.7827799169
17197.37379,-0.2389552385,0.2360380626,-0.3025442934,0.4520471463
17207.41079,-0.3506201005,0.1787207311,0.1349323949,0.4160316164
17217.447790000002,-0.3529145479,0.1554417962,0.4064481461,0.5602775434
17227.483790000002,-0.4423898113,0.2095764881,0.5423967871,0.7306335088
17237.520790000002,-0.5943957835,0.2894664109,0.5175028512,0.8395870125
17247.55779,-0.6996018112,0.3926127568,0.3733888659,0.8848766672
17257.593790000003,-0.876046806,0.5092278716,0.20411782,1.033651351
17267.63079,-1.052363747,0.6124417529,-0.01550301522,1.217700579
17277.66858,-1.031087483,0.6356686476,-0.3346908233,1.256675764
17287.70458,-0.7398160368,0.736598314,-0.7700610521,1.297265921
17297.74158,-0.4429148912,1.04221415,-1.117293276,1.590826263
17307.778580000002,-0.3025752836,1.347647845,-1.321811922,1.911777517
17317.814580000002,-0.2728667504,1.426065731,-1.397564355,2.015268186
17327.851580000002,-0.3283240825,1.378509741,-1.258600305,1.895299591
17337.888580000003,-0.3914342505,1.392900032,-1.097354855,1.815923718
17347.924580000003,-0.4088373184,1.515488662,-0.8431778526,1.781797611
17357.961580000003,-0.4285851198,1.560955149,-0.4471140692,1.679338314
17367.99858,-0.4224660087,1.423132475,-0.02211884737,1.484679364
17378.03458,-0.3969423276,1.162965585,0.4488395825,1.308246588
17388.07158,-0.399094103,0.8451115268,0.7087319461,1.172940991
17398.10858,-0.4987435216,0.532437517,0.6863429573,1.001649372
17408.14458,-0.6134758329,0.3248976141,0.4663098934,0.8362750588
17418.18158,-0.6195341331,0.2458833119,0.1529926899,0.6838771149
17428.21858,-0.6833447975,0.2375223783,0.01783400774,0.723667772
17438.254579999997,-0.8363564909,0.255623019,0.1609203449,0.8892303779
17448.29158,-0.9102103329,0.1800173512,0.423520554,1.019930761
17458.32858,-0.787473768,0.03927574754,0.6988638926,1.05359777
17468.364579999998,-0.3859308511,-0.05646568447,0.8753270137,0.9582945144
17478.40158,0.1444513696,-0.0002169317007,0.9340658033,0.945169387
17488.438580000002,0.4324431127,0.2944640261,0.9943886036,1.12362129
17498.47458,0.3931650263,0.5083259386,1.226676847,1.384814097
17508.511580000002,0.07208038151,0.6051818499,1.754633935,1.857466258
17518.54758,-0.341987856,0.545565978,2.227252097,2.318458504
17528.58458,-0.5156519151,0.36825618,2.641865587,2.716792832
17538.621580000003,-0.4338324112,0.2028749943,2.978288648,3.016549701
17548.65758,-0.1388128996,0.08372131079,3.13175467,3.13594732
17558.69458,0.3489378566,-0.07868510395,2.892152145,2.914188224
17568.73158,0.8111614233,-0.0352958402,2.393389328,2.527358527
17578.76858,0.9869567925,0.2799149841,1.86784714,2.131030043
17588.80458,0.9549473798,0.4472242892,1.494624042,1.829162401
17598.84158,0.7370988357,0.4238956529,1.448033428,1.679226913
17608.87758,0.3605527657,0.4109773993,1.70497207,1.790483309
17618.914579999997,0.08864028096,0.2412675199,2.181461966,2.196552623
17628.951579999997,0.1220056629,0.08873032808,2.581705924,2.586109807
17638.987579999997,0.3532770753,0.0248433575,2.407463283,2.433372422
17649.024579999998,0.8140856159,-0.1043058488,2.034932789,2.194212058
17659.061579999998,1.165541868,-0.1721051913,1.910163732,2.244289091
17669.09858,1.308746611,-0.05890689701,1.833871308,2.253746146
17679.134579999998,1.568044898,0.1641444996,1.725248753,2.337133175
17689.17158,1.757426857,0.4071106356,1.50716515,2.350709471
17699.20758,1.814765823,0.4863342682,1.440157228,2.367266115
17709.24458,1.837921967,0.4271905589,1.338826735,2.313634793
17719.28158,1.79319486,0.3083347911,1.174065647,2.165421043
17729.31758,1.604617478,0.21034949,1.036988786,1.922079577
17739.35458,1.237320533,-0.06545899451,0.6088635492,1.380565755
17749.39158,-1.317347281,-1.611204951,-0.2736567092,2.09911249
17759.42758,-9.143540792,-5.722375844,-3.115334519,11.22743215
17769.46458,-7.829479061,-4.707426676,-4.852336468,10.34435969
17779.50158,-2.963525013,-2.15258403,-5.293783708,6.437409763
17789.53758,-1.354514523,-0.2450293261,-5.724182049,5.887360112
17799.57458,-0.5981426793,0.5789661509,-4.874705868,4.945273882
17809.611579999997,0.7271942371,1.212083366,-2.871140468,3.200219544
17819.64758,1.715439171,1.295537167,-0.6457745366,2.244587457
17829.684579999997,1.480116223,0.6468306899,0.681869545,1.753305464
17839.721579999998,1.567239736,0.4452099234,1.309835071,2.090483241
17849.757579999998,1.476925982,0.6535976726,1.83555326,2.444944998
17859.794579999998,1.447045541,0.6637864459,2.115883981,2.647927164
17869.83158,1.222138823,0.2863720644,2.166382874,2.503766566
17879.86758,0.8519024831,-0.211240021,1.447156784,1.692519703
17889.90458,0.6471212965,-0.4658324683,0.6541914573,1.031373998
17899.94158,0.5218148804,-0.4110668617,-0.13069024,0.6770130523
17909.97758,0.3711958677,-0.1927598959,-0.4917093211,0.6455391593
17920.01458,0.3358973962,0.0142023021,-0.36873916,0.4989963269
17930.05158,0.7489113808,0.1521351957,0.141932243,0.7772761
17940.08758,1.057906322,0.4871677887,1.257669721,1.714126999
17950.12458,0.6716690773,0.4839775479,2.033447303,2.195513961
