Time (s),Linear Acceleration x (m/s^2),Linear Acceleration y (m/s^2),Linear Acceleration z (m/s^2),Absolute acceleration (m/s^2)
0.009040541947,0.2122568518,-0.1034894313,-0.5965855658,0.6416208934
0.01902854163,0.199339183,-0.03101947904,-0.145292784,0.2486127733
0.02901654178,0.03604340672,-0.04548315167,0.3518901157,0.3566433762
0.03900454193,-0.1357232308,-0.08489440843,0.605094434,0.6259130371
0.04899254162,-0.1213174456,-0.01059647039,0.5875200427,0.6000083402
0.05897954153,-0.01851754725,0.009399545342,0.3835293996,0.3840912019
0.06896754168,0.06448601782,-0.02396788314,0.1322926694,0.1491115566
0.07895554183,0.06416208208,-0.01442566574,-0.02420396447,0.07007641903
0.08894354152,0.04903708935,-0.02846146837,-0.1202608538,0.1329562494
0.09893154167,0.007434149981,-0.04109247744,-0.15799586,0.163421388
0.1089195418,0.02314620316,-0.02458710328,-0.1207993823,0.1254303119
0.1189065417,-0.0187467581,-0.03542988762,-0.03641295075,0.05415367817
0.1288945419,-0.0806886524,-0.04572171807,-0.003041136861,0.09279214753
0.1388825416,-0.05340495944,-0.03339417949,-0.02548041165,0.06794492104
0.1488705417,-0.02108096659,-0.01632586464,-0.04996328831,0.05663277485
0.1588585419,0.05059829593,-0.008216068894,-0.05437501252,0.07472839705
0.1688465416,0.07094192863,5.525618792e-05,-0.0002894371748,0.07094254058
0.1788335419,0.05857097447,-0.01206762984,0.07213008285,0.09369597426
0.1888215416,0.06694535673,-0.00531204924,0.124338702,0.141315291
0.1988095418,0.05769973934,-0.01991020784,0.1528783768,0.1646131052
0.2087975419,0.004632748961,-0.03235980704,0.08310706079,0.08930511199
0.2187855416,-0.02402211607,-0.03066484541,-0.001789832711,0.03899484973
0.2287735417,-0.02012611628,-0.03958506525,-0.03565865993,0.05695241852
0.2387605417,-0.03187726557,-0.02317953229,0.002885016203,0.03951928765
0.2487485418,-0.01095241964,-0.03276399583,0.05844058156,0.06788767555
0.258736542,0.01137575805,-0.02800743207,0.07451106906,0.08040972289
0.2687245416,-0.01778372169,0.006123642772,0.02190951705,0.02887536485
0.2787125418,-0.1101200277,0.002006325871,-0.03981252193,0.1171131194
0.2886995417,-0.08704223692,0.02055442482,-0.09819053829,0.1328164794
0.2986875419,-0.05426566958,0.046054717,-0.08265857935,0.1090790566
0.3086755415,-0.09757073343,0.02830227792,-0.003514761329,0.1016534333
0.3186635417,-0.08489396989,-0.02816647634,0.01006539702,0.09000915915
0.3286515418,-0.02118504703,-0.0138519077,-0.0298851192,0.0391637832
0.3386395415,-0.02230829716,0.01906777024,-0.08656802773,0.09140712997
0.3486265419,-0.05689457774,0.02266029954,-0.09432377458,0.1124609114
0.3586145416,-0.05798508346,0.03038637176,-0.07247799218,0.09766606802
0.3686023336,-0.01902917862,0.04914833263,-0.03664625466,0.06419202614
0.3785903333,0.009729766846,0.02077851936,-0.01405553699,0.02690675286
0.3885783334,0.03044352829,0.006180945486,0.01574538231,0.03482713836
0.3985663336,0.06004330337,-0.02637035787,0.02976817489,0.07201901339
0.4085533335,-0.00741134584,-0.05580582619,0.0104524827,0.0572579486
0.4185413332,0.03394893408,-0.06753168628,-0.02722814441,0.08033947115
0.4285293333,0.1055451661,-0.03151663855,-0.03938216686,0.116978783
0.4385173335,0.1076057249,-0.04836451337,0.001574655175,0.1179855827
0.4485053336,0.07327145934,-0.06405887872,0.02244863033,0.09988086754
0.4584923335,0.01792113125,-0.05986817926,0.04241102457,0.07552523313
0.4684803332,0.0193729949,-0.08142086998,0.03990958571,0.09272241385
0.4784683334,0.04728994131,-0.0752577585,0.007204354405,0.08917382736
0.4884563335,0.06167175293,-0.0803173542,-0.05275299489,0.1141803878
0.4984443332,0.04030134916,-0.08160695761,-0.0866838026,0.1256899992
0.5084323334,-0.007400820851,-0.09487312049,-0.07688971639,0.1223425912
0.5184193333,-0.0216966784,-0.08994318679,-0.06333119273,0.1121220883
0.5284073334,-0.04432014048,-0.09398639023,-0.0765131557,0.1290425488
0.5383953336,-0.06521867394,-0.07859213322,-0.08565937042,0.133295636
0.5483833333,-0.06473160088,-0.0260383822,-0.1122946072,0.1322053565
0.5583713334,-0.0786444658,0.01997481957,-0.1510294873,0.1714463515
0.5683593336,-0.1247971237,0.06605146363,-0.1887042671,0.2356828767
0.5783463335,-0.2020762646,0.08863633409,-0.2452029884,0.3298722813
0.5883343336,-0.2037088072,0.1660843134,-0.2467612714,0.3605168544
0.5983223333,-0.1856005651,0.2287974554,-0.1970798188,0.3544521129
0.6083103335,-0.1597599649,0.2657846028,-0.1265992355,0.334950844
0.6182983336,-0.191695118,0.3099041837,-0.03757888556,0.3663329005
0.6282863333,-0.2839916629,0.3698960316,0.0182070601,0.4666967279
0.6382733332,-0.4093939734,0.3599731605,0.05827569008,0.5482519108
0.6482613334,-0.5263429642,0.3331731784,0.04039490461,0.6242379603
0.6582493335,-0.5866318506,0.3975863984,-0.03994934678,0.7097942115
0.6682373332,-0.6275939351,0.4533664969,-0.07547293603,0.7778891258
0.6782253333,-0.7261440772,0.450298609,-0.1141013968,0.8620169296
0.6882123332,-0.9230280143,0.4332846732,-0.1630876154,1.032624759
0.6982003334,-1.123143708,0.4113713555,-0.1474088913,1.205158729
0.7081883335,-1.186413504,0.3858396345,-0.04496742725,1.248387479
0.7181763332,-1.038460237,0.4043862717,0.2065189791,1.133392258
0.7281643334,-0.8918898368,0.391170541,0.5988057536,1.143262963
0.7381523335,-0.8289580089,0.2727876668,0.9112330109,1.26171712
0.7481393334,-0.7503497958,0.1373855942,0.8643272316,1.152805786
0.7581273336,-0.4316473067,0.06596843317,0.5911178344,0.7349091956
0.7681153333,-0.09703805208,0.03947045982,0.2438762552,0.2654240543
0.7781033334,0.1508681041,0.01973596081,-0.04086677492,0.1575461401
0.7880913336,0.2929419959,0.005258985758,-0.152401244,0.3302556723
0.7980793333,0.4169035524,-0.03265026748,-0.08470744371,0.4266731337
0.8080663332,0.5550142014,-0.08198995024,0.00178924799,0.5610403881
0.8180543333,0.5008865261,-0.174903084,0.09263042092,0.5385710684
0.8280423335,0.3928627253,-0.2230018415,0.02753687739,0.4525806246
0.8380303332,0.4521201628,-0.1782725421,-0.2175865889,0.5324825486
0.8480183333,0.4282629383,-0.09771413639,-0.327743454,0.5480629237
0.8580063335,0.4370419478,-0.08645444557,-0.343751961,0.5627125785
0.8679933334,0.4604354882,-0.1367365533,-0.293905617,0.5630970037
0.8779813335,0.42052064,-0.1909931597,-0.1835446841,0.4969956205
0.8879693332,0.4772924262,-0.2391540438,-0.106679526,0.5444109092
0.8979573334,0.5285438561,-0.2884048489,-0.05887386024,0.6049810709
0.9079453335,0.5280363178,-0.3301476829,0.04223034561,0.6241820628
0.9179323334,0.4858901721,-0.4147777972,0.1237703526,0.6507295756
0.9279203336,0.4281781536,-0.4789691884,0.1025215709,0.6505833438
0.9379083333,0.4262438947,-0.4889506048,-0.05133855343,0.6506859448
0.9478963334,0.4066364264,-0.4753732239,-0.220307883,0.6632257901
0.9578843336,0.3279662329,-0.4414808616,-0.354012655,0.6540582245
0.9678723332,0.2709155345,-0.3979932915,-0.4458232963,0.6561648409
0.9778593336,0.1973780268,-0.3297898333,-0.4413607013,0.5852509618
0.9878473333,0.1187358999,-0.2565202012,-0.4181034011,0.5046892921
0.9978353335,0.04866929948,-0.1684116514,-0.3616935575,0.4019370779
1.007823334,0.03140422583,-0.08360517047,-0.2975151032,0.3106304663
1.017811333,-0.05548598349,-0.05936210275,-0.1799597561,0.1974539628
1.027799333,-0.1464294827,-0.06595513076,-0.1019929826,0.1902478415
1.037786333,-0.1483888847,-0.01803208217,-0.1067947161,0.1837104474
1.047774334,-0.08470919788,0.03970858768,-0.06614838123,0.114577609
1.057762333,-0.02463899732,0.05742842853,0.04308462381,0.07590381678
1.067750333,-0.02131485522,0.0305262664,0.1171858031,0.1229580759
1.077738333,-0.01464902937,-0.003827002645,0.1441981852,0.1449908846
1.087725333,-0.01331761837,-0.01293089814,0.113655839,0.1151616986
1.097713334,0.00388898313,-0.01923916675,0.07588282585,0.07838030994
1.107701333,0.02061669767,-0.0295645456,0.1036880904,0.1097739982
1.117689333,0.01956419885,-0.0521043925,0.1594249195,0.1688606838
1.127677334,-0.01963085711,-0.1069044245,0.2060775143,0.2329846957
1.137665333,-0.07006367683,-0.1290375976,0.2037433058,0.251139314
1.147652334,-0.09352504492,-0.1387725538,0.159302128,0.2310452849
1.157640333,-0.07724230349,-0.1093816705,0.07463619947,0.1533012902
1.167628333,-0.1251081955,-0.1189948585,0.01218676686,0.1730905954
1.177616334,-0.1853672612,-0.09885025039,-0.06156241,0.2189116805
1.187604333,-0.1927329987,-0.07139859617,-0.1122472447,0.2341862769
1.197591333,-0.169058792,-0.07334031031,-0.1470896333,0.2357859973
1.207579333,-0.1535853052,-0.08292645492,-0.2022493422,0.2671517159
1.217567333,-0.1107053339,-0.1138800797,-0.1979416984,0.2537819132
1.227555333,-0.03921259761,-0.1244684371,-0.125052647,0.1807434208
1.237543333,-0.01895024121,-0.1845474084,-0.01636226356,0.1862379695
1.247531333,-0.02361222625,-0.2362449809,-0.00998178184,0.2376317828
1.257518333,-0.04743378282,-0.2110175344,-0.04233267188,0.2203869749
1.267506334,-0.06665533483,-0.1776810962,-0.132348218,0.231364553
1.277494333,-0.08811578572,-0.1544732049,-0.1453687978,0.2296920767
1.287482333,-0.1188727248,-0.1182097967,-0.1515580755,0.225995865
1.297470334,-0.1306688976,-0.09602684923,-0.1689172894,0.2341550068
1.307458333,-0.09194395781,-0.01606763698,-0.164638297,0.1892554601
1.317445334,-0.04705956101,0.03097065479,-0.131510312,0.1430690249
1.327433333,-0.0188063997,0.03456493825,-0.0726060462,0.08258361563
1.337421333,0.01329072118,0.05396833867,-0.01280306339,0.05703633298
1.347409334,0.03434946835,0.0635543371,0.05130054653,0.08860466023
1.357397333,-0.02849991381,0.0334917549,0.1319254643,0.1390621115
1.367385792,-0.1273067486,0.005315119028,0.1532648778,0.1993122713
1.377372792,-0.1768864596,0.009349186197,0.1243720311,0.2164362007
1.387360792,-0.1957682884,0.003625566065,0.07561151505,0.2098939462
1.397348792,-0.2182157493,-0.01978697777,0.05783247113,0.2266147225
1.407336792,-0.1948017436,-0.04978933364,0.06155773222,0.2102761315
1.417324792,-0.1903379792,-0.07620866194,0.1771507537,0.2709588456
1.427311792,-0.2293470937,-0.1086731341,0.2729427642,0.3727032224
1.437299792,-0.2682299083,-0.1670184061,0.2330916506,0.3926501615
1.447287792,-0.3366610426,-0.19304524,0.1365424258,0.4114012109
1.457275792,-0.3961167008,-0.2165257578,0.02170194089,0.4519544431
1.467263792,-0.4208053994,-0.1705955864,-0.05010479093,0.4568265846
1.477251792,-0.3766712004,-0.07673374191,-0.120821017,0.4029478608
1.487238792,-0.3342098898,-0.006596463248,-0.1463844591,0.3649221473
1.497226792,-0.3340660483,0.02154742822,-0.08235920191,0.3447425915
1.507214792,-0.3569923961,0.01774388753,-0.02407298684,0.3582428298
1.517202792,-0.2878356224,0.05206514306,-0.01362869024,0.2928239503
1.527190792,-0.1790405738,0.103772802,-0.03328176677,0.2095996124
1.537178792,-0.09454012156,0.1232834988,0.01709842801,0.1562978308
1.547165792,-0.1026969874,0.1044165073,0.07253237128,0.1634332375
1.557153792,-0.07012273371,0.05489417218,0.08226915479,0.1212385325
1.567141792,-0.04780566573,0.02416771173,0.08186335802,0.09783184222
1.577129792,-0.03083236814,-0.0272990419,0.06041167796,0.0731125396
1.587117792,-0.01429293394,-0.09762942486,0.00605537653,0.09885575422
1.597104792,-0.04119772732,-0.1408019031,-0.04173508644,0.1525262144
1.607092792,-0.06063387215,-0.2394128562,-0.0889367348,0.2624970951
1.617080792,-0.1034588796,-0.3214685876,-0.1466160089,0.3681603545
1.627068792,-0.1245585573,-0.3818027169,-0.1503611505,0.428831697
1.637056792,-0.1612989521,-0.4342144536,-0.1613433909,0.4905010025
1.647044792,-0.1877956098,-0.4662137798,-0.1587986827,0.5271048294
1.657031792,-0.2341499966,-0.4704036022,-0.1880973262,0.5581096433
1.667019792,-0.3092627442,-0.4523330746,-0.2252066803,0.5924244291
1.677007792,-0.3973756063,-0.4235982489,-0.2282975185,0.6240693919
1.686995792,-0.4579118299,-0.3958067252,-0.2101255417,0.6407019206
1.696983792,-0.5285964811,-0.3607666276,-0.1778331238,0.6642224171
1.706971792,-0.583369689,-0.3202142137,-0.1806491429,0.6895588804
1.716958792,-0.619206689,-0.2752227397,-0.1499056524,0.6940001331
1.726946792,-0.5871516681,-0.2195370738,-0.155677439,0.6458940107
1.736934792,-0.6182126623,-0.1548439184,-0.1210747862,0.648708439
1.746922792,-0.654919728,-0.1026760105,-0.06728507996,0.6663253674
1.756910792,-0.6428522444,-0.08676113203,0.0205389297,0.6490056624
1.766897792,-0.615993644,-0.04315289006,0.06121216178,0.6205298302
1.776885792,-0.5679230994,0.01070464388,0.1129635286,0.5791476453
1.786873792,-0.5286455977,0.05135890905,0.1447548401,0.5505069203
1.796861792,-0.5239105225,0.09294324696,0.1497851998,0.5527714616
1.806849792,-0.4788740981,0.1403040127,0.1872559118,0.5329825459
1.816837792,-0.3879820544,0.2035308326,0.2024469781,0.4826382219
1.826824792,-0.3261910182,0.2487153377,0.2391072661,0.4747969927
1.836812792,-0.3244807076,0.2540379851,0.2543088573,0.4842478935
1.846800792,-0.2811200953,0.2402349747,0.2804897654,0.464129141
1.856788792,-0.1989228612,0.2252035374,0.3257975006,0.4432053129
1.866776792,-0.09634106398,0.2141479692,0.3465966314,0.4186528135
1.876763792,-0.007082147598,0.2042374503,0.3297262448,0.3879207257
1.886751792,0.04451485276,0.1948466941,0.3396074545,0.394055871
1.896739792,0.0909920311,0.2241194636,0.375090698,0.446320642
1.906727792,0.1096820712,0.2229407929,0.3987713367,0.4698418168
1.916715792,0.1024151516,0.224059822,0.4220508564,0.488690692
1.926703792,0.1093511188,0.2403006097,0.4367127496,0.5103137034
1.936690792,0.1382024503,0.2175783297,0.4290031958,0.5004837548
1.946678792,0.1668596542,0.1994510841,0.38391707,0.4636973105
1.956666792,0.2360281223,0.1692955311,0.3271283269,0.4374736491
1.966654791,0.3166705817,0.129227559,0.297164855,0.4530860518
1.976642792,0.4098547339,0.05886304289,0.30059834,0.5116689582
1.986630792,0.4368542522,0.03596439622,0.3159618992,0.5403397054
1.996617792,0.3940766072,0.01315418869,0.3131558204,0.5035235574
2.006605792,0.3554633492,-0.008166879192,0.2525155163,0.4361020254
2.016593792,0.323532874,0.03793827005,0.1840797043,0.3741632938
2.026581792,0.295741058,0.05501060486,0.1665099907,0.3438233806
2.036569792,0.2671546054,0.04373724617,0.1346660542,0.302356538
2.046556792,0.239134748,0.03154360883,0.1006352592,0.2613577669
2.056544792,0.2488072121,0.0143826887,0.05603854537,0.2554451195
2.066532792,0.239330045,0.006791687161,-0.009925063848,0.2396320186
2.076520792,0.1973025978,0.004820663854,-0.06478247166,0.207721743
2.086508792,0.16587089,-0.03068954989,-0.106580708,0.1995355807
2.096496792,0.1319459295,-0.05703556873,-0.1896871841,0.2380000257
2.106483792,0.155148266,-0.05071765222,-0.2865252614,0.3297574716
2.116471792,0.1509464568,-0.0347807005,-0.3071296799,0.3439813516
2.126459792,0.08587396324,-0.06529249504,-0.2953814542,0.3144640694
2.136447792,0.07288846672,-0.08340205282,-0.2675557244,0.2895767543
2.146435792,0.09147501111,-0.07639957353,-0.1777810836,0.2140343107
2.156423792,0.0528155601,-0.0873335379,-0.1123326141,0.1517736684
2.166410792,0.01412687302,-0.1181135369,-0.08371166289,0.1454579618
2.176398792,-0.003625273705,-0.1089522656,-0.1054679829,0.1516813575
2.186386792,0.02046408534,-0.1120467583,-0.1229704535,0.1676155938
2.196374792,0.03143580079,-0.08530305572,-0.1505476767,0.1758676316
2.206362792,-0.002355258465,-0.002290171646,-0.1305314881,0.1305728207
2.216349792,-0.05662034333,0.04325631268,-0.1014813513,0.1239977279
2.226337792,-0.07627634346,0.062353319,-0.08759012103,0.1318258179
2.236325792,-0.09356129766,0.09997496232,-0.1002569443,0.1697061118
2.246313792,-0.05007613957,0.1405852637,-0.1039804512,0.1818894455
2.256301792,0.01084249198,0.1473070401,-0.05882649779,0.1589889322
2.266289792,0.01813221574,0.1441781585,-0.01177746177,0.1457903537
2.276276792,0.08871044755,0.1487579902,0.01903385639,0.1742434241
2.286264792,0.147522912,0.141150324,0.04344890535,0.2087444153
2.296252792,0.2179169565,0.1411387027,0.121218043,0.2865340247
2.306240792,0.3143901676,0.1332235461,0.2212791055,0.4068834394
2.316228792,0.3707795459,0.100730788,0.3699159122,0.5333497402
2.326215792,0.3871418095,0.06108184196,0.4859053749,0.6242706187
2.336203792,0.4374009669,0.05168112718,0.5574308556,0.7104362769
2.346191792,0.4511869472,0.07617430955,0.5934093583,0.7493376097
2.356179792,0.4370208979,0.1137940525,0.5850618732,0.7390762796
2.366168292,0.4378055942,0.1402440056,0.5026266575,0.6811576002
2.376156292,0.4194991314,0.1973902329,0.435378415,0.6360006207
2.386143292,0.375264945,0.2113968726,0.4085806257,0.5936754537
2.396131292,0.3573028833,0.2030768694,0.329192394,0.5265673723
2.406119292,0.3262699556,0.2059472676,0.2636445218,0.46730589
2.416107292,0.2872269273,0.2199101262,0.2271087795,0.4271278135
2.426095292,0.2794863832,0.2184149931,0.2042403191,0.4093065545
2.436083292,0.2816761655,0.2108792478,0.1888071781,0.3993240161
2.446070292,0.2672551775,0.1960971943,0.1669420999,0.3711456644
2.456058292,0.2102617818,0.1692336237,0.1115379775,0.2920458127
2.466046292,0.2031837273,0.145614527,0.009388874173,0.2501506915
2.476034292,0.2493252754,0.1096515926,-0.08130904198,0.2842494064
2.486022292,0.2310188127,0.06572175376,-0.1537560439,0.285184084
2.496009292,0.2325478595,0.03697574526,-0.2020768493,0.3102914207
2.505997292,0.3133639812,-0.008487891331,-0.2601262522,0.4073508268
2.515985292,0.3054562068,-0.02682380944,-0.29917045,0.4283993104
2.525973292,0.3280685592,-0.06255183198,-0.2977957696,0.4474640003
2.535961292,0.3596569723,-0.08195822909,-0.2560577595,0.4490388238
2.545949292,0.3373837584,-0.1074614449,-0.2373045695,0.4262501863
2.555936292,0.2988921225,-0.1469024494,-0.2606501627,0.4229129199
2.565924291,0.2834671676,-0.139544971,-0.3286673141,0.4559041976
2.575912292,0.2776374936,-0.1560811161,-0.3938257617,0.5065003684
2.585900292,0.2460742235,-0.1561898012,-0.4920373499,0.571881571
2.595888292,0.2187881917,-0.1485719756,-0.5345968938,0.5964358671
2.605875292,0.2314491677,-0.1665433198,-0.5026687574,0.5779111301
2.615863292,0.178569873,-0.1637164103,-0.4316268414,0.4949666583
2.625851292,0.1535092914,-0.1565539366,-0.3572473347,0.419165714
2.635839292,0.1293772477,-0.1451099123,-0.3245771867,0.3783460176
2.645827292,0.1348391318,-0.1186623712,-0.3112741864,0.3593799785
2.655814292,0.1148036474,-0.0936802154,-0.2784467483,0.3154179003
2.665802292,0.06710206211,-0.1021404786,-0.2413601983,0.2705367062
2.675790292,0.03886351883,-0.1102529787,-0.205471158,0.2363990042
2.685778292,-0.01281651199,-0.09461606227,-0.1753439641,0.1996546217
2.695766292,-0.03189305305,-0.07304718208,-0.1250199026,0.1482667653
2.705754292,0.008844498396,-0.07151722156,-0.04002653003,0.08243216142
2.715741292,0.04390966594,-0.07167750835,0.06661031127,0.1072504431
2.725729292,0.07185350955,-0.07450682983,0.2609314138,0.2807123033
2.735717292,0.08339415908,-0.1131929588,0.4768094462,0.4971061051
2.745705292,0.07471396744,-0.1865098802,0.6488725376,0.6792670185
2.755693292,0.05380666316,-0.2387244196,0.748629545,0.7876107548
2.765681292,0.1067701578,-0.2744301131,0.7975344872,0.8501605801
2.775668292,0.09038509011,-0.3141864287,0.7997985291,0.8640371888
2.785656292,0.01021976352,-0.3145333513,0.8115455854,0.8704262805
2.795644292,-0.1433748972,-0.2584236526,0.8554575902,0.9050673091
2.805632292,-0.3341145802,-0.1864307966,0.8390666753,0.922183214
2.815620292,-0.4950726396,-0.0645443438,0.778210609,0.9245943125
2.825607292,-0.6697891974,0.03859885924,0.685149833,0.9589253019
2.835595292,-0.7789514512,0.1138654251,0.5872592568,0.9821426236
2.845583292,-0.8706001246,0.1597992875,0.484103263,1.008878763
2.855571292,-0.9180163658,0.1950735661,0.3656907141,1.007242494
2.865559292,-0.9451088548,0.1609858337,0.2407602739,0.988490109
2.875547292,-0.9457222277,0.1282411337,0.1365231299,0.9640927784
2.885534292,-0.9417905599,0.1121603039,0.03991367877,0.9492852544
2.895522292,-0.9204780436,0.07181930333,0.008480216861,0.9233145483
2.905510292,-0.9623353368,0.0070456025,-0.01676864505,0.9625072095
2.915498292,-0.9026528066,-0.03522388291,-0.03984877467,0.9042183011
2.925486292,-0.8423504716,-0.05895075113,-0.05224721074,0.8460255783
2.935473292,-0.8050054747,-0.08183631465,-0.0138906455,0.8092737156
2.945461292,-0.7459129286,-0.1201997504,0.0337191385,0.7562876816
2.955449292,-0.6605342245,-0.1789973044,0.1157356936,0.6940751022
2.965437292,-0.6350649226,-0.2241604307,0.1671724802,0.6939034462
2.975425292,-0.6031087196,-0.2739006843,0.1846878147,0.6876563832
2.985413292,-0.5723576277,-0.2763739103,0.1683419234,0.6575064984
2.995400292,-0.5396518117,-0.2681504958,0.1699756354,0.6261153911
3.005388292,-0.5155671304,-0.2459083088,0.1987316573,0.6047930505
3.015376292,-0.5354710525,-0.2488139364,0.2236460584,0.6313914653
3.025364292,-0.5224691838,-0.2446944268,0.2642309976,0.6345608171
3.035352292,-0.4730163574,-0.2453170091,0.2874935603,0.6054564035
3.045339292,-0.4665651244,-0.2275443971,0.2952335197,0.5971786157
3.055327292,-0.468403489,-0.2594898924,0.2877753961,0.6079074859
3.065315292,-0.4240102583,-0.2461968689,0.2529692602,0.5517164525
3.075303292,-0.3829832697,-0.2391718413,0.1826523989,0.4870741764
3.085291292,-0.3736493593,-0.2239713098,0.1187978804,0.4515417232
3.095279292,-0.3545032364,-0.239124223,0.08774741113,0.4365232489
3.105266292,-0.3048293853,-0.2380994985,0.03825950146,0.38868511
3.115254292,-0.2676943034,-0.2047187676,0.01235516667,0.3372279111
3.125242292,-0.2294435728,-0.2251483543,0.02250359416,0.3222460958
3.135230292,-0.2250189847,-0.2363543969,0.05990823269,0.3317920143
3.145218292,-0.182876932,-0.2398226729,0.0484664011,0.3054633836
3.155205292,-0.1417721754,-0.2096440235,0.04471248865,0.2570003365
3.165193292,-0.1502243257,-0.1911863736,0.004405292273,0.243185082
3.175181292,-0.1279861951,-0.1496974915,-0.0306768322,0.1993260473
3.185169292,-0.09364783645,-0.09593892172,-0.07015372396,0.15131338
3.195157292,-0.09611828506,-0.03101933286,-0.05989186049,0.1174221388
3.205145292,-0.1039061916,0.01539447628,-0.03714794576,0.111415692
3.215132292,-0.112672922,0.05932548456,-0.02683228791,0.1301332861
3.225120292,-0.08287843466,0.1202397307,-0.00852114737,0.1462840994
3.235108292,-0.08257087111,0.1166338259,-0.01983317077,0.144273188
3.245096292,-0.09051138997,0.116377864,-0.07332525373,0.1646593811
3.255084292,-0.03120425105,0.124378463,-0.1639383852,0.2081333743
3.265071292,0.07470227301,0.1244484103,-0.2270561546,0.2694853127
3.275059292,0.1351291537,0.1199152833,-0.2667979252,0.3222121914
3.285047292,0.1581356084,0.07068552822,-0.306260199,0.3518502864
3.295035292,0.2128199387,0.02597815588,-0.3683664,0.4262170756
3.305023292,0.3200233752,0.02124929331,-0.4096459883,0.520265633
3.315011292,0.3422129738,0.02758138932,-0.4312479419,0.5512215887
3.324998292,0.345299719,0.02819278881,-0.4760826373,0.5887965751
3.334986292,0.3988186991,0.04080230936,-0.4926858062,0.6351853956
3.344974292,0.4594771296,0.04836100504,-0.500143345,0.6808827983
3.354962292,0.482423358,0.07181944951,-0.4944423097,0.6945239573
3.364950459,0.5181065762,0.06246975169,-0.4968659806,0.7205641518
3.374937458,0.5490301609,0.06842324048,-0.4942616308,0.7418965002
3.384925459,0.5682715935,0.06193202712,-0.4730169421,0.7419657724
3.394913458,0.6228629529,0.0205627571,-0.4647823083,0.7774340353
3.404901458,0.7005496448,0.01206163645,-0.4468617618,0.8310238998
3.414889459,0.7664261305,9.574815631e-05,-0.4085209841,0.8685035504
3.424877458,0.8138213217,-0.03775561765,-0.4051564962,0.9098804409
3.434864459,0.8178705186,-0.04124845192,-0.3827084506,0.9039244316
3.444852458,0.8474790645,-0.05418797471,-0.3402307677,0.9148300807
3.454840458,0.8788973236,-0.08985547855,-0.3080435997,0.9356416899
3.464828459,0.8966477162,-0.108581479,-0.2793413723,0.9454092589
3.474816458,0.8909718239,-0.08599587768,-0.254994151,0.9307245022
3.484803458,0.8758544326,-0.04898709565,-0.2416116285,0.9098884007
3.494791458,0.8605470067,-0.004610091001,-0.2114663082,0.8861604839
3.504779459,0.7990266967,0.05367173865,-0.1628706837,0.8172216206
3.514767458,0.7290062892,0.08997856244,-0.1762888741,0.7553966366
3.524755458,0.6990042257,0.1328570719,-0.1993093622,0.7389060366
3.534743458,0.6571486866,0.1743201166,-0.2086918044,0.7111850453
3.544730458,0.6267145139,0.1741520823,-0.2331395978,0.6909805364
3.554718459,0.5984718776,0.1760558626,-0.2697624636,0.6796587686
3.564706458,0.6155094945,0.1848107524,-0.280755229,0.701306246
3.574694458,0.6095845109,0.1401044764,-0.2897850841,0.68934602
3.584682459,0.6006411946,0.0925799156,-0.2556233114,0.6593058188
3.594669458,0.6072198969,0.0220910731,-0.2221415699,0.6469550956
3.604657459,0.6537754279,-0.03361432716,-0.2038286752,0.6856371941
3.614645458,0.6424639893,-0.06545139313,-0.182790978,0.6711604905
3.624633458,0.62126257,-0.09570832215,-0.1719338679,0.6516813015
3.634621459,0.5932672709,-0.1432973485,-0.1369049531,0.6254943253
3.644609458,0.5276796377,-0.1637900122,-0.1220594573,0.5658369723
3.654596458,0.453226456,-0.1277745259,-0.1126419318,0.4841784327
3.664584458,0.4801809508,-0.1618874013,-0.1521258402,0.5290780164
3.674572458,0.5106256485,-0.2133846335,-0.3209910893,0.6397709232
3.684560458,0.4779976004,-0.2086265349,-0.3641821325,0.6361095524
3.694548458,0.4551852733,-0.2011376403,-0.3462545693,0.606252596
3.704535458,0.387264601,-0.1877587724,-0.2805254334,0.5137331472
3.714523458,0.344163605,-0.1754793271,-0.2493223518,0.459786055
3.724511459,0.3137048739,-0.1328961021,-0.2115902692,0.401051822
3.734499458,0.283403433,-0.09213041089,-0.1710024065,0.343580182
3.744487458,0.2594883209,-0.06813789636,-0.1304367632,0.2983131087
3.754474458,0.1833616662,-0.03425225839,-0.0757945329,0.2013443047
3.764462458,0.1206011617,-0.05246253446,-0.02998101354,0.1348918786
3.774450459,0.09543533027,-0.04846026152,-0.0249991858,0.1099147784
3.784438458,0.1145498782,-0.03943683833,-0.01638740659,0.1222517318
3.794426458,0.1054744148,-0.05575868301,0.001823746562,0.1193197761
3.804414459,0.08241299629,-0.08949192792,0.04703266382,0.1304330425
3.814401458,0.07212189674,-0.135948641,0.06043214321,0.1653349476
3.824389458,0.07310422897,-0.1337220213,0.0576202172,0.1629291156
3.834377458,0.07928941369,-0.1135606755,0.06216408849,0.1518130826
3.844365458,0.04732736349,-0.1046638446,0.06918542504,0.1340933359
3.854353459,0.02001735806,-0.1060186444,0.07896957099,0.1337043033
3.864340459,-0.005918551683,-0.08815276936,0.06645711422,0.1105553618
3.874328458,-0.05021822691,-0.0774330689,0.07100507855,0.1164451444
3.884316458,-0.1047897059,-0.09598701507,0.04760276735,0.1498679852
3.894304459,-0.1342877394,-0.09214429803,0.0001970511675,0.1628613135
3.904292458,-0.1680542403,-0.07825928047,-0.03967452765,0.1895806183
3.914280458,-0.1629566377,-0.08356957555,-0.04484346628,0.1885462177
3.924267458,-0.169808405,-0.08901925363,-0.06976137578,0.2040244385
3.934255458,-0.1872693604,-0.09594871581,-0.07442453027,0.2231926973
3.944243459,-0.1399297178,-0.105410534,-0.1018017787,0.2026210965
3.954231458,-0.1023923475,-0.08026312128,-0.09935588837,0.1637008064
3.964219458,-0.103527292,-0.08501354545,-0.05420485854,0.1445107947
3.974206458,-0.1293678921,-0.0946449329,-0.05801373482,0.1704679098
3.984194458,-0.1282282698,-0.08353346899,-0.02120083451,0.1544985599
3.994182459,-0.1321061432,-0.05817752995,-0.004282500744,0.144412596
4.004170458,-0.1476381022,-0.03851590186,0.007538230419,0.1527655355
4.014158458,-0.1530035073,-0.0393975158,0.02829292238,0.1605077161
4.024146459,-0.131762327,-0.0425352779,0.06044325292,0.151075966
4.034133459,-0.1262466484,-0.06200855255,0.06693307757,0.1557668569
4.044121458,-0.1364067703,-0.07526060902,0.05745824933,0.1660494405
4.054109458,-0.1353881854,-0.07233064234,0.08177214146,0.1739205729
4.064097458,-0.1307864267,-0.06885447264,0.09624283075,0.1763766149
4.074085458,-0.08968810201,-0.06868154123,0.08939281762,0.144056189
4.084072459,-0.06402935028,-0.08980387688,0.07028119326,0.1307820329
4.094060458,-0.06481755495,-0.09281519294,0.04441135705,0.1216073357
4.104048458,-0.05703608036,-0.0728013432,0.03722688317,0.09969448764
4.114036459,-0.04596086919,-0.05495520249,0.04178888083,0.0829384491
4.124024458,-0.05625255346,-0.07915543936,0.06292305708,0.1157119029
4.134012458,-0.06474855781,-0.06489590764,0.03076746404,0.09669793902
4.143999458,-0.07855558813,-0.04703310236,0.01946304202,0.09360503805
4.153987458,-0.08462324381,-0.0503047657,0.05550820291,0.1130169166
4.163975459,-0.09246494472,-0.04384578511,0.03743972182,0.1089676633
4.173963458,-0.08125875592,-0.04015019864,0.03200941265,0.09612297521
4.183951458,-0.07003677964,-0.05299718924,0.04876168549,0.1004567297
4.193938458,-0.0702689141,-0.07219337896,0.05378035069,0.1142012713
4.203926458,-0.05875399232,-0.07625573203,0.05366457582,0.1102127714
4.213914458,-0.07970807433,-0.06370673016,0.06247048259,0.1196431602
4.223902458,-0.1039102846,-0.03187324561,0.05580524147,0.1221780505
4.233890458,-0.122312057,-0.03065227389,0.06797095835,0.1432475213
4.243877458,-0.1199053431,-0.04171929896,0.07720663548,0.1485888817
4.253865459,-0.09471963108,-0.04208080307,0.06836681485,0.1241636979
4.263853458,-0.07980689228,-0.02679084577,0.06115602851,0.1040526275
4.273841458,-0.08172068596,-0.02750822604,0.0670856899,0.1092495437
4.283829459,-0.06738448262,-0.02733719498,0.0718821609,0.1022498694
4.293817458,-0.04855235517,-0.05212778136,0.04999895632,0.08703178968
4.303804459,-0.05075734019,-0.05364732653,0.04157545745,0.08475176629
4.313792458,-0.02101313889,-0.05657634303,0.02652472436,0.06592416552
4.323780458,0.001156579256,-0.0674569881,0.01650259674,0.06945587533
4.333768459,0.02276087165,-0.08852172866,0.01343339324,0.09238295177
4.343756458,0.04437335014,-0.05454165816,0.03679769754,0.07935903996
4.353743458,0.01852807224,-0.03991601765,0.09007518768,0.1002502736
4.363731292,-0.01133424282,0.004738729745,0.08356022,0.08445845717
4.373719292,-0.05070003748,0.04016642466,0.09702694237,0.1166107329
4.383707292,-0.1046827018,0.07690258026,0.09261404872,0.1595300502
4.393695292,-0.145200398,0.1117125168,0.1030595148,0.210200156
4.403683292,-0.1840984154,0.1588841982,0.08927061081,0.2590475959
4.413670292,-0.1761280757,0.1717713153,0.09052483857,0.2621473445
4.423658292,-0.1892334402,0.1632853974,0.06289323628,0.257734311
4.433646292,-0.1515873116,0.1284994344,0.03531133533,0.2018358444
4.443634292,-0.08385550439,0.1152735443,0.01469346821,0.1433025946
4.453622292,-0.04108019829,0.08275111154,0.04457917213,0.1025798798
4.463609292,-0.01864677072,0.02126069538,0.0653286016,0.07118669407
4.473597292,-0.02434663653,-0.00146063447,0.08086348414,0.08446179747
4.483585292,-0.01802521169,-0.003029150069,0.09384488761,0.09560829952
4.493573292,-0.03894830346,-0.006767421216,0.08815496206,0.09661296843
4.503561292,-0.05586429834,-0.01144702099,0.07736626446,0.09611135727
4.513549292,-0.06197756231,0.001166811883,0.03428514898,0.07083820382
4.523536292,-0.0660524869,-0.0005983894318,0.005639639497,0.06629550987
4.533524292,-0.07818779826,0.0194780986,0.001026186347,0.08058400077
4.543512292,-0.04868684113,0.03763531119,0.02614582479,0.06686126907
4.553500292,0.003293151855,0.03832162812,0.00871527493,0.03943790116
4.563488292,-0.01417365074,0.03732043862,0.008439871073,0.04080366329
4.573475292,-0.006792710423,0.01995040745,0.01502675951,0.02588364683
4.583463292,0.03678658783,-0.01006115779,0.008909987211,0.03916462451
4.593451292,0.08581841469,-0.04163034819,0.019334988,0.09732280283
4.603439292,0.08662825406,-0.06293007374,0.04088022351,0.1146116977
4.613427292,0.1023572642,-0.06324933171,0.07187514424,0.1401553561
4.623414292,0.1195872545,-0.06211818784,0.0683843565,0.1511165144
4.633402292,0.1055656314,-0.05207537569,0.0711284548,0.1375325575
4.643390292,0.05638703942,-0.04376304701,0.08300239563,0.109471915
4.653378292,0.03131885648,-0.00932411626,0.09823907018,0.1035312746
4.663366292,0.007424209714,-0.009937927723,0.1226798469,0.1233054181
4.673354292,-0.0541522336,0.01849547401,0.1002610373,0.115441858
4.683341292,-0.0882344842,0.02019072801,0.04622165501,0.1016338088
4.693329292,-0.08515358627,0.01369469069,-0.003487864137,0.08631826576
4.703317292,-0.06782887101,0.01726755872,-0.05927556396,0.09171977327
4.713305292,-0.03589664161,0.01752732128,-0.09576102018,0.1037590905
4.723293292,-0.005004047155,0.009535346925,-0.07005607545,0.07087888992
4.733280292,-0.008128214478,-0.02422793806,0.0048262918,0.02600680576
4.743268292,-0.0243402046,-0.06062568605,0.07731188536,0.1012178195
4.753256292,-0.02909925342,-0.1104536844,0.121186468,0.1665321079
4.763244292,-0.02761990786,-0.1255236402,0.04407046437,0.1358721803
4.773232292,-0.006859953403,-0.1322111008,-0.009982951283,0.132764805
4.783219292,-0.001210958362,-0.1229344931,-0.03780692697,0.1286223921
4.793207292,-0.04025047839,-0.1225876071,-0.04522762835,0.1367236658
4.803195292,-0.07292238057,-0.1488288876,-0.06559932768,0.1782441673
4.813183292,-0.06572796643,-0.1392264439,-0.06611446738,0.1675568293
4.823171292,-0.07568460524,-0.1016867347,-0.04112756073,0.1332660037
4.833159292,-0.1096025491,-0.09970993727,-0.03135510921,0.1514527426
4.843146292,-0.1700972575,-0.08775515869,-0.01790651321,0.1922360219
4.853134292,-0.1712316173,-0.0768605534,-0.01867776096,0.1886177887
4.863122292,-0.1509371012,-0.06788178831,-0.002257025242,0.1655144703
4.873110292,-0.1545196903,-0.07635323435,0.003106040955,0.1723827096
4.883098292,-0.1955267984,-0.08463479206,0.009222228527,0.2132576526
4.893085292,-0.1779559153,-0.08956969589,0.03287538528,0.2019203536
4.903073292,-0.1679098141,-0.06487047225,0.0503725934,0.1869205233
4.913061292,-0.1874968171,-0.05462878168,0.02886653423,0.1974148855
4.923049292,-0.2547292721,-0.03901949331,0.0128223592,0.2580192548
4.933037292,-0.2768025112,-0.002666037977,0.02082018077,0.2775972224
4.943024292,-0.257280997,0.03579117246,0.03640184104,0.2622968042
4.953012292,-0.2505818421,0.03772638157,0.04610061765,0.2575651498
4.963000292,-0.2600724578,0.01509268686,0.08758895159,0.2748404936
4.972988292,-0.2383249086,0.009081602991,0.07896840155,0.2512314591
4.982976292,-0.1780751985,-0.0101550056,0.07788315833,0.1946270455
4.992964292,-0.1072560614,-0.01909612924,0.06605190217,0.1274024279
5.002951292,-0.09384020984,-0.05250945836,0.06106013417,0.1236590805
5.012939292,-0.08895018339,-0.07810717978,0.08430690944,0.1453290117
5.022927292,-0.05617420077,-0.07777542338,0.08232704222,0.1264211185
5.032915292,-0.005681154728,-0.0730242683,0.1282224226,0.1476679008
5.042903292,-0.02277139664,-0.08276163653,0.1723069203,0.1925037656
5.052890292,-0.03425357401,-0.09925487772,0.1837896824,0.2116683383
5.062878292,-0.007808956504,-0.08665208146,0.1904461527,0.2093783659
5.072866292,-0.02428816438,-0.05433378965,0.1433485848,0.1552124105
5.082854292,-0.05916739047,-0.02680422127,0.1279797632,0.1435202639
5.092842292,-0.0981285578,0.000494235903,0.09292745948,0.1351479591
5.102829292,-0.09814726889,0.02150313556,0.07797379017,0.1271816936
5.112817292,-0.08327429116,0.03109008417,0.06625070751,0.1108618832
5.122805292,-0.0717710638,0.03884568483,0.04651927829,0.0939367664
5.132793292,-0.05775704205,0.02503894687,0.01748785257,0.06533490456
5.142781292,-0.02077398777,0.03010219708,-0.00449767828,0.03685010104
5.152769292,0.007114307284,0.008688670099,0.02030094802,0.02319988894
5.162756292,-0.02065996706,0.001157675609,0.07026365161,0.07324721967
5.172744292,-0.01564071715,0.008338421881,0.06556307495,0.06791669978
5.182732292,-0.02622183859,-0.008189902604,0.06276108921,0.06850995287
5.192720292,-0.02248546779,-0.01517396316,0.05674255013,0.06289326208
5.202708292,-0.02097864032,-0.01168558739,0.02408877432,0.03401360538
5.212695292,-0.006481638551,-0.02927028447,0.01811584353,0.03502777439
5.222683292,0.01521036208,-0.03358436018,0.04304661691,0.05667694056
5.232671292,0.02626159966,-0.05499350175,0.03960143745,0.07267895638
5.242659292,0.05035154343,-0.0742945759,0.04534632683,0.1005547179
5.252647292,0.053897295,-0.1061233096,0.05138006866,0.1296417629
5.262634292,0.02008460104,-0.08697316669,0.004797640443,0.08939094069
5.272622292,0.00110570848,-0.02674867272,0.01944140732,0.03308598498
5.282610292,0.048699705,-0.07386100486,-0.02600958467,0.09221500854
5.292598292,0.0154658854,-0.08686155796,-0.1142066467,0.1443166034
5.302586292,0.01606990278,-0.1021227908,-0.1163724554,0.1556594184
5.312574292,0.02899400353,-0.08684598975,-0.0532114166,0.105897748
5.322561292,0.008658556938,-0.09140462525,-0.03650299788,0.0988040737
5.332549292,-0.04088139296,-0.110114619,0.008226447701,0.1177463037
5.342537292,-0.009588848948,-0.09967785068,0.02710476816,0.1037414498
5.352525291,0.007830591202,-0.1120952171,0.05018255889,0.1230648003
5.362513292,0.02711470842,-0.1192450462,0.006942983866,0.122485891
5.372499917,0.0542200613,-0.121871177,0.01036711335,0.1337904177
5.382487917,0.06306339025,-0.1398962425,0.006327856779,0.153583826
5.392475917,0.05806694448,-0.1258043797,0.03198777795,0.1422031291
5.402463917,0.04008149385,-0.1251033716,0.03490553856,0.135925628
5.412451917,0.03689066827,-0.1153879304,0.02631247044,0.1239662938
5.422438917,0.02211884737,-0.1197559467,0.06149984479,0.1364293263
5.432426917,0.004238646626,-0.09872826286,0.06331832886,0.1173645891
5.442414917,-0.03505522728,-0.06111100495,0.048262918,0.08539750078
5.452402917,-0.03620712876,-0.03804768607,0.03533063114,0.06329957413
5.462390917,-0.03052889764,-0.04116878361,0.006588057876,0.0516747989
5.472378917,-0.02250593305,-0.03078032792,0.006278740168,0.03864412228
5.482365917,-0.01079512954,-0.04129025951,-0.01840703487,0.04647837438
5.492353917,-0.05155957818,-0.04051645361,0.008950332999,0.06618218473
5.502341917,-0.05640925884,-0.02403936535,0.01054603815,0.062218281
5.512329917,-0.08261238635,-0.02413058192,0.01384269834,0.08717058941
5.522317917,-0.1107059187,0.01132839561,-0.02121252894,0.1132877061
5.532304917,-0.1325417608,0.02523417078,0.006488070488,0.1350784098
5.542292917,-0.1107714075,0.04302235097,0.02796489358,0.1220789199
5.552280917,-0.08975592971,0.02809236288,0.03126389265,0.09910973087
5.562268917,-0.09676791072,0.0007059051096,0.02343213201,0.09956702093
5.572256917,-0.07492505193,-0.03233152114,0.03328995287,0.0881323529
5.582244917,-0.08507406414,-0.03173481278,0.02042841733,0.09306994663
5.592231917,-0.09285670817,-0.05120728344,0.01059106171,0.1065679348
5.602219917,-0.08169378877,-0.04812974766,0.006061223745,0.09501097919
5.612207917,-0.08374148369,-0.01555154711,0.00876380682,0.08562295847
5.622195917,-0.08747843921,-0.02498266742,0.03333205283,0.09688981754
5.632183917,-0.1191399425,-0.03126345411,0.02740589976,0.1261856284
5.642170917,-0.1196714544,-0.03590336591,-0.004518728256,0.1250229083
5.652158917,-0.1156789756,-0.03995914087,-0.06863344789,0.1403171711
5.662146917,-0.07728732705,-0.03583159134,-0.07634534061,0.1143933778
5.672134917,-0.04305538774,-0.003435970098,-0.08521439731,0.09553567822
5.682122917,-0.06315343738,-0.03645841286,-0.07223825634,0.1026447183
5.692109917,-0.04677889466,-0.06231494665,-0.09095110059,0.1197644365
5.702097917,-0.01401226759,-0.04641008154,-0.05569122076,0.0738359762
5.712085917,0.008786610961,-0.05909020722,-0.04948557079,0.07757369939
5.722073917,0.007228912711,-0.06425278701,-0.05186889589,0.08289185833
5.732061917,0.02358357489,-0.06231363103,-0.07198097885,0.09808381585
5.742049917,0.0460099858,-0.05976029813,-0.09339932978,0.1200485187
5.752036917,0.07279198766,-0.08282434791,-0.1111368585,0.156556531
5.762024917,0.07292355001,-0.07220960498,-0.1240556967,0.1610027549
5.772012917,0.1147691488,-0.05444357112,-0.1248871708,0.1781372094
5.782000917,0.1061737418,-0.06304511771,-0.100530594,0.1592292393
5.791988917,0.1010661989,-0.05007760137,-0.07103840768,0.1332989051
5.801975917,0.0858458966,-0.0530466713,-0.05170985162,0.1133903702
5.811963917,0.09627615988,-0.04633012086,-0.05366808414,0.119565222
5.821951917,0.08660895824,-0.00885721609,-0.03287772417,0.09306184326
5.831939917,0.08025186539,0.0001128512621,-0.02011383712,0.08273415907
5.841927917,0.04807288349,0.001414002925,0.01341935992,0.04993075957
5.851914917,0.03346829295,0.01811584353,0.06594489813,0.07613829529
5.861902917,0.04024346173,0.03290447518,0.09136976123,0.1051221859
5.871890917,0.03608258307,0.04424456522,0.1026297444,0.1174410439
5.881878917,0.02610606372,0.03982787088,0.09606273651,0.1072186327
5.891866917,0.02410514653,0.04516199335,0.08926476359,0.1029021951
5.901853917,0.05362598419,0.06299731672,0.06729794383,0.1066462439
5.911841917,0.05917440712,0.0265662396,0.0353458339,0.07386950331
5.921829917,0.04885816455,0.01474711642,0.04655377686,0.06907859166
5.931817917,0.08188850105,0.02093127787,0.04571587086,0.09609258996
5.941805917,0.08759655297,0.04924656585,0.04593455672,0.110491465
5.951793917,0.0665758127,0.07433755293,0.04946276665,0.1113776275
5.961780917,0.0376315105,0.08702966541,0.0238168788,0.09776265626
5.971768917,0.01108632088,0.1076630276,-0.01979516387,0.1100276445
5.981756917,0.0001023262739,0.137308411,-0.03972130537,0.1429384214
5.991744917,-0.01054428399,0.1508651805,-0.0541142267,0.1606232677
6.001732917,-0.01547465622,0.1167050157,-0.0356767863,0.1230136528
6.011719917,-0.03019502163,0.1132940425,-0.01979457915,0.1189079676
6.021707917,-0.01156053007,0.1037665893,-0.01050569236,0.1049357922
6.031695917,-0.004398275614,0.08857552305,0.00404568851,0.08877688724
6.041683917,0.0228164202,0.08043166727,0.01734108746,0.08538474948
6.051671917,0.01247386515,0.05140784293,0.03396998405,0.06286750706
6.061658917,0.04273788393,0.04239479855,0.03776014924,0.07106106203
6.071646917,0.07165411949,0.01420113266,0.03810688913,0.08239004799
6.081634917,0.07187806785,-0.006708218157,0.01527526617,0.07378882426
6.091622917,0.09441849947,-0.03487103999,0.003643400073,0.1007180065
6.101610917,0.0915615499,-0.06237283409,-0.03509440362,0.1162131878
6.111598917,0.1095119172,-0.08546334252,-0.04638362288,0.1464523247
6.121585917,0.09257896543,-0.06181676388,-0.05632856727,0.1247601083
6.131573917,0.05380081594,-0.07313858137,-0.07441634417,0.1173949409
6.141561917,0.0520916748,-0.057632204,-0.08509686828,0.1152236543
6.151549917,0.07483091176,-0.08210894108,-0.08092663407,0.1374433107
6.161537917,0.07489055336,-0.1063418493,-0.06153025031,0.1438859117
6.171524917,0.06221554399,-0.09883110076,-0.03544932961,0.1220451366
6.181512917,0.03982304692,-0.111483306,-0.0122312057,0.1190126253
6.191500917,0.00778147459,-0.1034237963,-0.01274166763,0.104495852
6.201488917,-0.008276733756,-0.0750117369,-0.02347423196,0.07903356604
6.211476917,-0.04245663285,-0.05096535489,-0.02294856727,0.07019024015
6.221463917,-0.02536463678,-0.01575824618,0.009147968888,0.0312309535
6.231451917,-0.03974060118,-0.01191428661,0.04782671571,0.06331398221
6.241439917,-0.04110066354,-0.003776278049,0.0707460469,0.08190560403
6.251427917,-0.07110974371,-0.009150307775,0.03948215425,0.08184842263
6.261415917,-0.06442345262,-0.01183417976,0.03396706045,0.07378475624
6.271402917,-0.04649881303,-0.002748629898,0.03709707499,0.05954735554
6.281390917,-0.06032104611,0.008417359293,0.05213728309,0.08017341722
6.291378917,-0.04134273827,0.005359411687,0.0834380132,0.09327297222
6.301366917,-0.06502045333,-0.003763852715,0.07977122426,0.1029819118
6.311354917,-0.05825873315,-0.01021698609,0.0724271214,0.09351018505
6.321342917,-0.0292290616,-0.02181391507,0.07628043652,0.08455110838
6.331329917,-0.05698813319,-0.05918186232,0.07220024943,0.1093755739
6.341317917,-0.05015975475,-0.09798237741,0.07876141012,0.135351051
6.351305917,-0.04189296126,-0.07262680382,0.05192444444,0.09861957598
6.361293917,-0.01991854012,-0.08478199571,0.01353104174,0.08813526041
6.371282292,-0.001889235377,-0.09276417598,-0.03065227389,0.09771552308
6.381269292,0.03234504282,-0.1185607758,-0.04505162716,0.1308912085
6.391257292,0.01233177781,-0.1308244336,-0.06330780387,0.1458594638
6.401245292,0.01759017885,-0.1189896691,-0.1081875229,0.1617791576
6.411233292,-0.0002280414104,-0.09457827464,-0.1395981807,0.1686201473
6.421221292,0.006476960778,-0.08931124896,-0.2076977777,0.2261787282
6.431209292,-0.009530961514,-0.09637000769,-0.2704220295,0.2872387363
6.441196292,0.02303218246,-0.08856455952,-0.3117542428,0.3249074799
6.451184292,0.06972980082,-0.08619848371,-0.3019110399,0.3216250919
6.461172292,0.1021590436,-0.1173540567,-0.3083798146,0.3454078095
6.471160292,0.1507336181,-0.0992803131,-0.2731409848,0.327388457
6.481148292,0.150864011,-0.09506490916,-0.2396457946,0.2987095473
6.491135292,0.1428001159,-0.1047189546,-0.2385202056,0.2970687144
6.501123292,0.1424299872,-0.0938464956,-0.2199167043,0.2783106588
6.511111292,0.1234388155,-0.05855840296,-0.1864115739,0.2311179409
6.521099292,0.1310349333,0.0002318421006,-0.1337538886,0.1872439858
6.531087292,0.1074577904,0.008397478759,-0.08396192372,0.1366283243
6.541074292,0.07190438032,0.01034343213,-0.04917917669,0.08772581101
6.551062292,0.03195503354,0.02644067064,-0.03999027729,0.05761471609
6.561050292,0.01635875523,0.04144521073,-0.04581351936,0.06390769062
6.571038292,0.01525538564,0.08965097219,-0.04210696936,0.1002148715
6.581026292,0.006742424369,0.1089833289,-0.01197158933,0.1098460069
6.591013292,-0.003296660185,0.0817733109,0.03244035244,0.0880347591
6.601001292,-0.01156871617,0.05936385691,0.08333685637,0.1029705508
6.610989292,0.024820261,0.06459097534,0.1270898169,0.1447061195
6.620977292,0.0171224016,0.07299342424,0.1429772866,0.1614426248
6.630965292,-0.0001239609718,0.07476863891,0.1854502916,0.1999554335
6.640953292,-0.02858294427,0.07867063209,0.1913951558,0.2088974837
6.650940292,-0.06036548495,0.09146945626,0.1924149102,0.2214365617
6.660928292,-0.1018134731,0.1134175649,0.2151968318,0.2637028702
6.670916292,-0.1303186494,0.1415738086,0.1736997271,0.2592251702
6.680904292,-0.1626595992,0.123230947,0.1714122963,0.266507386
6.690892292,-0.1977826542,0.1289620954,0.1637506896,0.2873386307
6.700879292,-0.2087058377,0.1069082983,0.1063561749,0.2574862072
6.710867292,-0.1989257848,0.08228084922,0.09092888117,0.2336871144
6.720855292,-0.1697376537,0.0981963855,0.08762228072,0.2147814361
6.730843292,-0.1289767134,0.06593612731,0.114355166,0.1845526198
6.740831292,-0.1138371027,0.03200298071,0.1301017177,0.1758110738
6.750818292,-0.09544468582,0.02489788279,0.136697377,0.1685697645
6.760806292,-0.07293992221,0.01044809729,0.1603020018,0.176425981
6.770794292,-0.05912061274,-0.001732676178,0.1891550875,0.1981865185
6.780782292,-0.07628394485,-0.01463879675,0.1712310326,0.1880255332
6.790770292,-0.1285539597,-0.04736990198,0.1121221143,0.1770350154
6.800757292,-0.121974088,-0.03383491337,0.07105127156,0.1451577166
6.810745292,-0.08429989278,-0.04420918956,0.02061845183,0.09739632909
6.820733292,-0.0674435395,-0.04743670642,-0.009478336573,0.08299825902
6.830721292,-0.07113079369,-0.05961718753,0.03874832869,0.1005745089
6.840709292,-0.05782779336,-0.04906208619,0.099234851,0.1248947462
6.850696292,-0.06813351095,-0.05500972778,0.1196936738,0.1483065104
6.860684292,-0.09254505157,-0.06040159151,0.1068976271,0.1537531837
6.870672292,-0.07815856218,-0.07884327114,0.06167175293,0.1269977455
6.880660292,-0.05051701963,-0.09977118686,0.0245816946,0.1145011734
6.890648292,-0.06181033194,-0.08266705781,0.04194441676,0.1114167567
6.900636292,-0.01733582497,-0.09867819607,0.06526545167,0.1195721388
6.910623292,-0.002465186119,-0.09362780973,0.05516672552,0.1086996389
6.920611292,-0.03289409637,-0.08332063034,0.07889589608,0.1193688043
6.930599292,-0.06469651759,-0.07132185146,0.06231319249,0.1146969042
6.940587292,-0.05025155604,-0.0255292359,0.03670998931,0.06726502869
6.950575292,-0.05356985092,0.006548881531,0.04430201411,0.06982324277
6.960562292,-0.08038693607,0.01013527125,0.03159776866,0.08696667292
6.970550292,-0.07689380944,0.03127061695,0.007862166166,0.08338059169
6.980538292,-0.04805066407,0.03759876609,-0.05667004466,0.08327080815
6.990526292,-0.04913590729,0.03569856718,-0.09629487097,0.1138482642
7.000514292,-0.07481746316,0.03133756757,-0.1132360089,0.1392913839
7.010501292,-0.05095614552,-0.0004063814878,-0.1491045839,0.1575717958
7.020489292,0.00138579011,0.01865700334,-0.1699697882,0.1709962955
7.030477292,0.04575914025,0.0203458254,-0.1602271575,0.1678707643
7.040465292,0.06231319249,-0.01283054531,-0.1281528407,0.14307588
7.050453292,0.114035908,-0.03584050834,-0.09975408375,0.1556907434
7.060440292,0.1628946573,-0.06874045193,-0.07045836389,0.1903268245
7.070428292,0.1569778597,-0.08517902166,-0.04376407027,0.183882593
7.080416292,0.1537303162,-0.09267222852,-0.05786580026,0.1885990532
7.090404292,0.1420452404,-0.1007276452,-0.07877485871,0.19112401
7.100392292,0.1247725654,-0.06308195516,-0.06676701665,0.1549366343
7.110380292,-0.01932738662,-0.1062449317,-0.09150424719,0.1415434938
7.120367292,-0.01633010387,-0.06223951757,-0.1266027439,0.1420164941
7.130355292,0.1182383019,-0.009093151242,-0.06368144095,0.134604262
7.140343292,0.1025215709,0.003660064638,0.01801644087,0.1041569043
7.150331292,0.008705334663,-0.04062820852,0.04954053462,0.06465832312
7.160319292,-0.02524652302,-0.08168414086,0.05672968626,0.1026057654
7.170306292,0.02538042426,-0.03888895422,0.03142118275,0.05606966579
7.180294292,0.04594040394,-0.02622637019,-0.008638676405,0.0536000927
7.190282292,0.01003791511,-0.01232344553,0.001052498817,0.01592905531
7.200270292,-0.02779064655,-0.009288886786,0.0356469655,0.04614444282
7.210258292,-0.07330888152,-0.01856403261,0.0393371433,0.08524216245
7.220245292,-0.0348768872,0.007330508083,0.04101880252,0.05433852933
7.230233292,-0.049296121,0.0008840990067,0.07429121375,0.08916318533
7.240221292,-0.03103819013,-0.01387909725,0.09712926865,0.1029081795
7.250209292,-0.02961263895,-0.02310205668,0.1441443908,0.1489571039
7.260197292,-0.03052480459,-0.03716519505,0.1769478554,0.1833672788
7.270184292,-0.02010097325,-0.05309593409,0.2038304293,0.2115893931
7.280172292,-0.0357878834,-0.04614564121,0.2109675407,0.2189006534
7.290160292,-0.04491304815,-0.03559653327,0.2013208044,0.2093188031
7.300148292,-0.07969228685,-0.02157651812,0.1509137124,0.1720213804
7.310136292,-0.09330168128,-0.01913735211,0.1138575679,0.1484418666
7.320124292,-0.1130301869,-0.006554728746,0.06058475554,0.1284106702
7.330111292,-0.09988506138,0.004805388004,0.03484238863,0.1058966916
7.340099292,-0.1162952721,0.01528944567,0.01913092017,0.1188459068
7.350087292,-0.1467124879,0.001122226864,0.0151460427,0.1474964953
7.360075292,-0.1380311269,0.01087465167,0.02855546236,0.1413727854
7.370062792,-0.1523164594,0.01523740545,0.02815375865,0.1556441983
7.380049792,-0.1310226542,0.02637035787,0.01750948727,0.1347921134
7.390037792,-0.1344719267,0.005509538949,0.009348528385,0.13490904
7.400025792,-0.1215717995,-0.01036038905,0.01307788253,0.1227113324
7.410013792,-0.1073735905,-0.03302156568,0.05119763553,0.1234532689
7.420001792,-0.07839829803,-0.0636720854,0.09003425717,0.1353018664
7.429988792,-0.08736851156,-0.07057852417,0.09746022105,0.1487046723
7.439976792,-0.0755723387,-0.07599289969,0.09049560249,0.1402695735
7.449964792,-0.06274764061,-0.07050864995,0.0821989882,0.1251615347
7.459952792,-0.03605919421,-0.06427712604,0.09074118555,0.116900715
7.469940792,-0.02894020915,-0.03465878606,0.1529567295,0.1594820625
7.479927792,-0.03121886909,-0.002521027029,0.2146045089,0.2168780039
7.489915792,-0.04170468092,-0.01902625501,0.2913503838,0.2949344417
7.499903792,-0.07301652074,-0.05514479846,0.3412119305,0.3532675227
7.509891792,-0.0665027225,-0.04673416346,0.3083242661,0.3188581929
7.519879792,-0.1211449528,-0.01014579624,0.2068879384,0.2399617799
7.529866792,-0.1982977939,0.02019058183,0.1181839228,0.231726378
7.539854792,-0.2212679958,0.05900776148,0.05249396324,0.2349405416
7.549842792,-0.2436984998,0.07968380839,0.01838013768,0.2570531027
7.559830792,-0.2657863569,0.1033539221,-0.001774045229,0.285179887
7.569818792,-0.2809850246,0.1144286947,-0.03906057,0.3058957965
7.579806792,-0.2762499493,0.09002548635,-0.06054908752,0.2967908602
7.589793792,-0.2509800375,0.07051201209,-0.1113432652,0.2834788277
7.599781792,-0.1834236467,0.025826713,-0.1791961098,0.2577256274
7.609769792,-0.1104410398,0.01093692452,-0.2003279471,0.2290155584
7.619757792,-0.05161688089,-0.0535379836,-0.2163686138,0.2287924718
7.629745792,0.01427714646,-0.1124501431,-0.2033468646,0.232806398
7.639732792,0.06750844359,-0.1428227739,-0.2046075243,0.258495597
7.649720792,0.1053872913,-0.1552051301,-0.2040333277,0.2771727122
7.659708792,0.1051417083,-0.1845189764,-0.1941217124,0.2877242963
7.669696792,0.1096288615,-0.1801664552,-0.2049928558,0.2941096901
7.679684792,0.1362249219,-0.1468364489,-0.1826904058,0.2710976881
7.689671792,0.1119893825,-0.1371423501,-0.1317775297,0.2207146649
7.699659792,0.07827609122,-0.114299325,-0.05715185523,0.1498593231
7.709647792,0.05917557657,-0.1163277242,-0.04234495103,0.1372114541
7.719635792,0.06728040218,-0.1027124825,-0.04466688037,0.1306584738
7.729623792,0.07143426418,-0.09934799463,-0.06884102404,0.1403993046
7.739610792,0.05390489638,-0.06855845734,-0.09461964369,0.1286812997
7.749598792,0.02477289855,-0.04963350534,-0.1271857113,0.1387565728
7.759586792,0.01783927023,-0.0268651785,-0.1534028721,0.1567559203
7.769574792,0.02351106942,0.0007724171877,-0.1702487004,0.1718661892
7.779562792,0.06280728221,0.03500318706,-0.1728308308,0.1871910091
7.789549792,0.06310782909,0.05206126928,-0.1348771387,0.15774922
7.799537792,0.07758670449,0.06122897252,-0.0810032326,0.1277897002
7.809525792,0.07438301504,0.04742281929,-0.04690168619,0.09990758171
7.819513792,0.0768031776,0.06732367158,-0.03656731725,0.1084821346
7.829501792,0.097008816,0.05049275368,-0.04157077968,0.1169972576
7.839489792,0.07899939179,0.03282276034,-0.06979470491,0.1104062423
7.849476792,0.07850705624,0.04355123162,-0.07940928161,0.1198578394
7.859464792,0.1066111135,0.04931994841,-0.08643061817,0.1458377132
7.869452792,0.09730585456,0.04551151067,-0.07181491792,0.1292172952
7.879440792,0.1311957318,0.02011983052,-0.04258936465,0.1393950558
7.889428792,0.1864782321,0.0262180379,-0.01414499938,0.1888427854
7.899415792,0.2349083805,0.03030246422,-0.0005098772049,0.2368553283
7.909403792,0.2359743279,0.003147994727,0.03904829085,0.2392040182
7.919391792,0.2321192586,-0.006494210064,0.07084603429,0.2427770285
7.929379792,0.2516904742,-0.01119215548,0.08427708864,0.2656614138
7.939367792,0.2283296782,0.01401928425,0.104272812,0.2514036626
7.949354792,0.1781570596,0.002045502216,0.1455559087,0.2300666088
7.959342792,0.1122162545,0.03847789496,0.1606499112,0.1997033553
7.969330792,0.06056896806,0.06765286982,0.1649563855,0.1882979549
7.979318792,0.01157047033,0.09807052419,0.1620906651,0.1898027587
7.989306792,-0.02979331791,0.09304747358,0.1518042433,0.180527013
7.999293792,-0.07472683132,0.1069482055,0.1040453553,0.1668755643
8.009281792,-0.08601722002,0.1245401385,0.1011767113,0.1820602515
8.019269792,-0.1107503575,0.1123143415,0.1032811242,0.1885395015
8.029257792,-0.1338901287,0.1277727717,0.1000125307,0.2103686147
8.039245792,-0.1575964952,0.1274030815,0.0799051255,0.2178371629
8.049232792,-0.1753082961,0.1066758715,0.05487494946,0.2124241048
8.059220792,-0.1575099564,0.1074443418,0.04516155481,0.1959419275
8.069208792,-0.1288691247,0.09191033632,0.0174235332,0.1592430241
8.079196792,-0.1171138823,0.05724351034,-0.01370411932,0.1310735816
8.089184792,-0.08185926497,0.007622430325,-0.02535352707,0.08603395865
8.099171792,-0.04077438891,-0.02134306803,-0.0489002645,0.06715142003
8.109159792,0.05683961391,-0.04021744162,-0.05191041112,0.08684972713
8.119147792,0.07777381539,-0.08083892584,-0.04313549459,0.1201847294
8.129135792,0.08407068193,-0.1028535466,-0.04131525636,0.1391175115
8.139123792,0.07661723614,-0.09724358171,-0.04379798412,0.1313193758
8.149110792,0.08109035611,-0.08647915006,-0.07151320159,0.1384500894
8.159098792,0.04825940967,-0.0885788852,-0.05454048872,0.1146728147
8.169086792,0.05141164362,-0.08885165781,-0.03984994411,0.1101171751
8.179074792,0.03336889029,-0.0773361513,-0.01760655105,0.08604855476
8.189062792,0.02235975266,-0.06998240054,-8.186101913e-06,0.07346764588
8.199050792,0.008972552419,-0.07293319792,0.004536269903,0.07362292985
8.209037792,0.01522790372,-0.05477233082,-0.02319824338,0.06140077989
8.219025792,0.01916717291,-0.03262395501,-0.03934415996,0.05458631588
8.229013792,0.02283045352,-0.03535518944,-0.06029824197,0.07353296549
8.239001792,0.04855001628,-0.01206894547,-0.04636140347,0.0682066218
8.248989792,0.02154874384,-0.001741593182,0.003905940056,0.02196902082
8.258976792,-0.01522088706,-0.02124308065,0.004394767284,0.02650014826
8.268964792,-0.05987081051,-0.03612205178,-0.03048679769,0.07628080629
8.278952792,-0.05444634855,-0.005224341005,-0.09029036522,0.1055653762
8.288940792,-0.05134030759,0.03762639418,-0.121268329,0.1369583161
8.298928792,-0.05953108728,0.04959403664,-0.1262881637,0.1481628128
8.308915792,-0.03495348573,0.0701921694,-0.08733342826,0.1173704158
8.318903792,-0.0409585762,0.04114305586,-0.01495659292,0.05995044355
8.328891792,-0.06405683219,0.0374153097,-0.01485660553,0.07565647281
8.338879792,-0.0393073225,-0.001923295408,-0.01528111339,0.04221702374
8.348867792,-0.01805620193,-0.006678982079,-0.05575437069,0.05898461732
8.358854792,0.01719490707,-0.03464650691,-0.07217569113,0.0818863582
8.368843167,0.04444176257,-0.06773911625,-0.09964181721,0.1284217656
8.378831167,0.06557067633,-0.08984363794,-0.08406541944,0.1394216182
8.388819167,0.09772919297,-0.1152205539,-0.07739491582,0.1697549534
8.398807167,0.1099592292,-0.113659932,-0.1054054177,0.1900523989
8.408794167,0.1083413047,-0.09342286482,-0.122748844,0.1885018532
8.418782167,0.06462868989,-0.05550440222,-0.1098247433,0.138993095
8.428770167,0.04475108027,-0.03296557859,-0.1237615818,0.1356698849
8.438758167,0.05344062746,-0.01811949804,-0.1765952682,0.1853917626
8.448746167,0.07788959026,-0.0161614117,-0.1835756743,0.200070007
8.458733167,0.1132278228,-0.009522775412,-0.1866694361,0.2185330672
8.468721167,0.1475381148,-0.04886942044,-0.164695015,0.2264512387
8.478709167,0.1625286216,-0.07791634127,-0.1231008464,0.218266643
8.488697167,0.1639149964,-0.07640556693,-0.0974912113,0.2054518751
8.498685167,0.1706252611,-0.06575705633,-0.09925063848,0.2080568658
8.508673167,0.166914618,-0.04349889904,-0.09466934502,0.1967610958
8.518660167,0.1616316587,-0.006103323698,-0.07040398479,0.1764051153
8.528648167,0.1482924056,0.00266720742,-0.05288689613,0.1574635683
8.538636167,0.1562001801,0.01978639305,-0.04689466953,0.1642836195
8.548624167,0.1997666144,0.01180611312,0.003829341531,0.2001518134
8.558612167,0.1951560849,0.005964159966,0.005398734212,0.1953218242
8.568599167,0.1374773955,0.002773334384,-0.03763677299,0.1425631521
8.578587166,0.1561019468,0.02008591667,-0.08249544203,0.1776985082
8.588575167,0.1802486086,0.03136709601,-0.1020806909,0.2095087661
8.598563167,0.1732576776,0.04365311936,-0.1361442304,0.2246309621
8.608551167,0.1457225543,0.05294887662,-0.1507289404,0.2162356581
8.618538167,0.1491811824,0.04659587681,-0.1496992457,0.2164164159
8.628526167,0.186306324,0.05560877502,-0.1386854303,0.238822174
8.638514167,0.2039122903,0.02974712491,-0.1504307324,0.255136275
8.648502167,0.2206154466,0.02166510344,-0.1634694386,0.2754320412
8.658490167,0.2363666761,0.00232748419,-0.1639442325,0.2876670543
8.668477167,0.2341377175,-0.008904870898,-0.1599312884,0.2836860668
8.678465167,0.2476512176,-0.0340389812,-0.1630835223,0.2984728012
8.688453167,0.2614798826,-0.07185555607,-0.1456383544,0.3078075376
8.698441167,0.2981091803,-0.07856435895,-0.1483882999,0.3421410958
8.708429167,0.2908007455,-0.07632619098,-0.14657157,0.3344756884
8.718416167,0.2978823084,-0.05730914533,-0.1420060641,0.3349386959
8.728404167,0.2486820817,-0.06004622698,-0.1440192604,0.2935811208
8.738392167,0.2168586105,-0.04879092157,-0.1773343563,0.2843513406
8.748380167,0.2108915269,-0.0473011972,-0.1863963711,0.2854054074
8.758368167,0.182297473,-0.02469556913,-0.2010682046,0.272526444
8.768355167,0.159898544,0.002755938917,-0.20992966,0.2639045314
8.778343167,0.118044759,0.005142187625,-0.2548228276,0.2808837494
8.788331167,0.08528631806,0.01548547357,-0.2758640331,0.2891617553
8.798319167,0.06954970658,0.02873117119,-0.3269172424,0.3354661313
8.808307167,0.05219575524,0.0509160921,-0.3345162839,0.3423711283
8.818294167,0.06312887907,0.07527047619,-0.3599505025,0.3731156178
8.828282167,0.0501609242,0.06335882083,-0.3560480708,0.3651036664
8.838270167,0.04768170476,0.07376160219,-0.3366546106,0.3479233332
8.848258167,0.05672208488,0.06861283645,-0.36889148,0.3794812778
8.858246167,0.04460080683,0.04947109893,-0.3921967274,0.3978126375
8.868234167,0.03110075533,0.05210936263,-0.4130981845,0.4175317385
8.878221167,0.02651595354,0.05901667848,-0.4568184006,0.4613774109
8.888209167,0.05527957678,0.04091998458,-0.4535509765,0.4587360516
8.898197167,0.1102656233,0.03927282393,-0.411889565,0.4281984074
8.908185167,0.1648809564,0.0346204868,-0.3173979753,0.3593407612
8.918173167,0.2004027915,0.005700889081,-0.1919535649,0.2775607142
8.928160167,0.2077808082,-0.0321573472,-0.0767464596,0.2238235428
8.938148167,0.2185759377,-0.06715234816,-0.02352627218,0.2298659694
8.948136167,0.2023733032,-0.06766529515,-0.002034831047,0.2133956104
8.958124167,0.1648417801,-0.08987813652,0.00795689106,0.1879207386
8.968112167,0.2046484548,-0.1518473665,-0.02930449069,0.2565099724
8.978099167,0.2089870888,-0.1769341144,-0.0433419013,0.2772360087
8.988087167,0.1517773461,-0.151974982,0.06241610348,0.2236705791
8.998075167,0.02128094137,-0.1283153933,0.1793072069,0.2215147694
9.008063167,0.01913735211,-0.1737387572,0.11049308,0.2067851898
9.018051167,0.01121086657,-0.1556429404,-0.06845686197,0.1704017323
9.028038167,0.03764086604,-0.1117150019,-0.0178708452,0.1192327285
9.038026167,-0.02166627288,-0.1114002755,0.04505922854,0.1221056217
9.048014167,-0.02020739257,-0.125850061,0.09841097832,0.1610319758
9.058002167,-0.02762049258,-0.1366203399,0.1619491625,0.2136715707
9.067990167,-0.04506975353,-0.120348562,0.2117551607,0.2477000346
9.077977167,-0.06689097762,-0.1465759555,0.2008349007,0.2574753793
9.087965167,-0.09206382573,-0.1352361578,0.144202863,0.218080334
9.097953167,-0.09677668154,-0.1210116363,0.06133729219,0.1666487492
9.107941166,-0.1187856013,-0.09830441281,-0.01926306725,0.1553861075
9.117929167,-0.1435047054,-0.06986033991,-0.04625673831,0.166173865
9.127916167,-0.1470387626,-0.04112317532,-0.07072090387,0.1682645521
9.137904167,-0.1229037952,0.007244554013,-0.06747803807,0.140396268
9.147892167,-0.09913544834,0.02518512726,-0.06654774606,0.1220275799
9.157880167,-0.07070628583,0.001358892918,-0.07163599312,0.1006625102
9.167868167,-0.02744799972,-0.04532279179,-0.06044208348,0.08037906194
9.177855167,0.02880221486,-0.08427007198,-0.0006578117609,0.08905866229
9.187843167,0.06802826107,-0.117861595,0.06512921154,0.1508675382
9.197831167,0.05143678665,-0.1630004919,0.1125074458,0.204628514
9.207819167,0.01853041112,-0.1953645381,0.113890897,0.2268960452
9.217807167,0.02781403542,-0.1611574495,0.1021590436,0.1928258651
9.227794167,0.03153754234,-0.1025899833,0.07869182825,0.1330854053
9.237782167,-0.03356828034,-0.07527749285,0.08338012576,0.1172423803
9.247770167,-0.07601906598,-0.0460010688,0.09881677508,0.1328899987
9.257758167,-0.1046879643,0.01700297222,0.1352536994,0.1718785447
9.267746167,-0.1309489793,0.04228165492,0.2060254741,0.2477536468
9.277733167,-0.1090955955,0.04576162532,0.2694736111,0.2942991716
9.287721167,-0.1307203531,0.03363771603,0.3589102829,0.3834526018
9.297709167,-0.1382656002,0.0001529046893,0.3917815751,0.4154638398
9.307697167,-0.1230096298,-0.01052454963,0.3862325674,0.4054845636
9.317685167,-0.1083529991,-0.00620126456,0.3718279517,0.387343328
9.327673167,-0.0839233321,0.005316873193,0.389912805,0.3988776633
9.337660167,-0.1373183513,0.02121004388,0.4277641708,0.4497648067
9.347648167,-0.1694663429,0.05708285809,0.4878600991,0.5196005873
9.357636167,-0.1888375837,0.07160734177,0.552698704,0.5884412475
9.367624167,-0.1988532794,0.09969999701,0.5572601169,0.6000179614
9.377612083,-0.2488615912,0.1121547125,0.5683657336,0.630515962
9.387599084,-0.2732234305,0.1010040723,0.5661905694,0.6367296337
9.397587083,-0.2790039879,0.0829243353,0.5325877905,0.6069344489
9.407575083,-0.2779064655,0.07632297501,0.4707833058,0.5519910516
9.417563084,-0.2945014483,0.08942731619,0.4145202273,0.5162900026
9.427551083,-0.2939944947,0.1109523788,0.3870003068,0.4985102113
9.437538083,-0.2970069802,0.1000594546,0.3756923765,0.4892543331
9.447526083,-0.2347130835,0.08992272153,0.3600808954,0.4391293416
9.457514083,-0.1993473691,0.1237302992,0.31963512,0.3965036828
9.467502083,-0.2695958179,0.1269474372,0.3041183639,0.4257763921
9.477490083,-0.3438782609,0.06862526178,0.1810695577,0.3946490461
9.487477083,-0.3418334895,0.1415553899,0.1638196868,0.4046294017
9.497465083,-0.3105111247,0.1543710248,0.126543687,0.3691353093
9.507453084,-0.1954677415,0.1007301302,-0.1012901473,0.2421030587
9.517441083,-0.1049645376,0.1076028013,-0.2564384133,0.297248342
9.527429083,-0.03277949095,0.1064817439,-0.2470173794,0.2709805206
9.537416083,-0.06215239406,0.1042330509,-0.2524927121,0.2801428541
9.547404083,-0.0252810216,0.0673153393,-0.4116334569,0.4178667106
9.557392084,-0.04761855483,0.1308087923,-0.5696801877,0.5864417986
9.567380083,-0.05394641161,0.1888738364,-0.7397850466,0.7654184846
9.577368083,-0.1806532359,0.2395702194,-0.8375499076,0.8896737207
9.587355083,-0.2590614742,0.2932809882,-0.7475524879,0.8437779966
9.597343083,-0.2792492786,0.3438683206,-0.7533961952,0.8739744896
9.607331084,-0.5305544212,0.3515196946,-0.7639504194,0.9943210412
9.617319083,-0.6832269761,0.3767942843,-0.8856789243,1.180339015
9.627307083,-0.5485047886,0.3761179076,-1.174903845,1.350081934
9.637294083,-0.5663642317,0.3984669891,-1.299103968,1.472146563
9.647282084,-0.552716538,0.3087680697,-1.179354161,1.338547545
9.657270083,-0.5050012118,0.2076049532,-0.9643105263,1.108161013
9.667258083,-0.3969356033,0.1200488922,-0.6709399295,0.7887521782
9.677246084,-0.2569450745,0.06117854029,-0.2538393259,0.3663304362
9.687233083,-0.1906265393,0.06600980222,0.09658079982,0.2236596127
9.697221084,-0.1972619596,0.03300884798,0.2996920216,0.3603015023
9.707209083,-0.2294011804,0.0002938225865,0.4762510371,0.5286208833
9.717197083,-0.214868803,-0.02776360318,0.6784097475,0.7121651534
9.727185084,-0.1544062543,-0.07227523997,1.012654721,1.026905344
9.737172083,-0.02657705694,-0.1210727397,1.274213541,1.280228532
9.747160084,0.05873235762,-0.1412371552,1.377450811,1.385917804
9.757148083,0.07898623556,-0.1439504094,1.388119056,1.397796501
9.767136083,0.1283838058,-0.1704086217,1.30088503,1.318265285
9.777124084,0.1963875085,-0.2045201084,1.21306219,1.245759369
9.787111084,0.1801883823,-0.2519696787,1.177904636,1.217955625
9.797099083,0.2084514838,-0.2191720614,1.177745007,1.215965343
9.807087083,0.239035053,-0.2541612151,1.197145484,1.246953483
9.817075083,0.2639646569,-0.3335110013,1.111816481,1.190396075
9.827063083,0.3190603387,-0.3102190563,0.9187952149,1.020891772
9.837050084,0.3109730548,-0.289738014,0.6920507169,0.8121493411
9.847038083,0.2196167421,-0.199343276,0.4709201306,0.5565384304
9.857026083,0.05148034841,-0.08369982228,0.3569257379,0.3702051713
9.867014084,-0.1371084362,0.03926990032,0.3024320269,0.334374011
9.877002083,-0.2324095729,0.1164525622,0.1905139804,0.3222902194
9.886990083,-0.1740549454,0.1631877489,-0.0547135663,0.2447834548
9.896977083,-0.09453135073,0.2476133569,-0.2554677755,0.3681200009
9.906965083,-0.02475214094,0.3017006864,-0.3708046889,0.4786774383
9.916953084,0.03320487589,0.3673646258,-0.3949887729,0.540440064
9.926941083,0.03522830486,0.411797179,-0.4127789265,0.5841270343
9.936929083,-0.1337863407,0.3528386072,-0.2868456888,0.4739982245
9.946916083,-0.1818524998,0.2743717506,-0.2428857368,0.409076607
9.956904083,-0.141578925,0.2817750565,-0.2531674808,0.4043952866
9.966892083,-0.01397952318,0.2463074543,-0.2505145991,0.3515968622
9.976880083,0.08191890657,0.1987223748,-0.2439411592,0.3251285572
9.986868083,0.1104439634,0.1097349154,-0.1515288395,0.2172570135
9.996855083,0.06623477384,0.02464572161,-0.1418224615,0.1584552538
10.00684308,0.002451883703,-0.005921402201,-0.1934440202,0.193550158
10.01683108,-0.03930878431,-0.06755946055,-0.2869380748,0.297393544
10.02681908,-0.02449237838,-0.06038660802,-0.3182762271,0.3248787093
10.03680708,-0.02777895212,0.004822052568,-0.3101070821,0.3113861345
10.04679408,-0.141096822,0.07045551337,-0.2628510547,0.3065337983
10.05678208,-0.3253190522,0.06391006708,-0.1889919502,0.3816214612
10.06677008,-0.3778052679,-0.01006305814,-0.08414786518,0.3871936838
10.07675808,-0.3843326609,-0.1174104092,-0.1002774096,0.4141887943
10.08674608,-0.2460808016,-0.2917839183,-0.2078416193,0.4346167905
10.09673308,-0.1163003153,-0.3970664713,-0.3980071056,0.574105567
10.10672108,-0.04239487164,-0.3935063941,-0.5903436631,0.7107392263
10.11670908,0.1773749214,-0.361531078,-0.659506284,0.7727322445
10.12669708,0.3558632988,-0.3348557147,-0.6761901444,0.8342662336
10.13668508,0.3285695925,-0.3251116222,-0.6297340161,0.7811660995
10.14667208,0.2986841809,-0.2928393041,-0.5509117949,0.6917159126
10.15666008,0.3591446831,-0.3359358416,-0.4194839287,0.6463780314
10.16664808,0.5447378661,-0.3496520939,-0.2487475705,0.6934488326
10.17663608,0.6704019856,-0.3762742475,0.02916474223,0.769331992
10.18662408,0.542998831,-0.3438544334,0.3463732678,0.7301082403
10.19661108,0.0254875014,-0.6322316542,1.188707367,1.346622323
10.20659908,-0.6066334577,-0.9878984866,1.170581583,1.647485604
10.21658708,-0.9159089562,-1.163527064,0.9787952489,1.775028051
10.22657508,-0.7051352506,-1.085047928,1.145004108,1.727882848
10.23656308,-0.4923510165,-0.879019969,1.286497371,1.634062764
10.24655008,-0.4170195466,-0.7321103568,1.256056767,1.512471315
10.25653808,-0.4123292025,-0.7542780284,1.296470382,1.555566189
10.26652608,-0.424859274,-0.8286851632,1.095245472,1.43763248
10.27651408,-0.7621103007,-0.4777875392,0.5473180962,1.052924566
10.28650208,-0.6553452592,-0.1319555774,2.121515434,2.224346516
10.29648908,-0.4030784323,-0.4552501043,0.5450634098,0.8165898608
10.30647708,0.327652274,-0.551567487,-1.396510395,1.536822693
10.31646508,1.23375227,-0.2214234587,-1.745847031,2.149221922
10.32645308,1.419941357,0.308072178,-1.687966028,2.227189089
10.33644108,1.260221592,0.4474426827,-1.324105493,1.881918907
10.34642808,0.6337055911,0.4322831183,-0.9306492752,1.206051219
10.35641608,0.2670606845,0.3599222897,-0.7066009283,0.8367498645
10.36640408,0.2312369138,0.09512593947,-0.5157244205,0.5731414595
10.37639221,0.063322495,-0.2175246084,-0.1189224261,0.2558695704
10.38638021,0.04257796258,-0.2510999785,0.03954413474,0.2577359515
10.39636721,0.4057426064,-0.1696809357,0.05403061152,0.4431004284
10.40635521,0.4104281265,0.4160138986,0.8701452112,1.048175319
10.41634321,0.2863831741,0.4471513452,1.428246742,1.523761269
10.42633121,0.4271651966,0.5398897203,1.207747071,1.390181284
10.43631921,0.7317147926,0.6424712983,1.177263781,1.527784644
10.44630621,0.5924279031,0.20450359,1.125421783,1.288164092
10.45629421,0.2447951451,-0.552457214,0.9533411497,1.128712977
10.46628221,0.2341763091,-0.9174323751,1.03940047,1.406013529
10.47627021,0.4653237605,-0.4862977231,1.095296343,1.285568262
10.48625821,0.7031564797,0.03789141923,1.108904568,1.31359588
10.49624521,0.5615296076,0.02660892427,0.8513774031,1.020228905
10.50623321,0.4989554831,-0.4305451065,0.1114514387,0.6683914168
10.51622121,0.825565162,-0.4723277016,-0.4809381652,1.065810871
10.52620921,1.203177179,0.1587462039,-0.4120971411,1.281662879
10.53619721,1.269738374,0.6615240119,-0.3644125128,1.477378095
10.54618421,1.258148316,0.609565946,-0.8165660048,1.61903918
10.55617221,0.9426141402,0.08038693607,-1.376646234,1.670370716
10.56616021,1.246322322,0.07797905266,-2.624076018,2.906058329
10.57614821,1.807543343,0.0784327966,-4.121333354,4.500972479
10.58613621,1.88805307,-0.5262016077,-3.938551147,4.399297406
10.59612421,2.628537444,-1.205684758,-3.797628572,4.773349725
10.60611121,2.964851162,-0.8362535068,-3.394354295,4.583808833
10.61609921,2.723322564,-0.3850561076,-3.369018309,4.349142256
10.62608721,2.336039836,-0.4595227379,-3.471730499,4.209650333
10.63607521,1.255275578,-0.4068384477,-2.769702094,3.067977182
10.64606221,0.1472434151,-0.1577830213,-1.938920338,1.950894201
10.65605021,-0.7363182324,0.231614717,-1.305315173,1.516462204
10.66603821,-1.515365578,0.4358401988,-0.6352476481,1.699949731
10.67602621,-2.12363622,0.322909707,0.1602017221,2.154011621
10.68601421,-2.178832181,0.4254976438,0.8287711903,2.36964546
10.69600121,-1.662452288,0.6335073705,1.254727548,2.177020996
10.70598921,-0.7370491344,0.9763588603,1.321552452,1.800838398
10.71597721,-0.290564518,1.676524051,0.925720584,1.937038779
10.72596521,-0.1762637311,2.257623851,0.4417254945,2.307174845
10.73595321,-0.118825947,2.781072004,0.08741170786,2.784981491
10.74594121,-0.4905515724,2.753588337,-0.09237087764,2.798467787
10.75592821,-0.8737798405,2.560278218,-0.1376914036,2.708777341
10.76591621,-1.227753904,2.586805866,-0.3154502678,2.880703578
10.77590421,-1.527188063,2.341009385,-0.6042805016,2.859682368
10.78589221,-1.902202163,1.908276835,-0.870796591,2.831639145
10.79588021,-2.353397881,1.572852771,-1.119751153,3.044041732
10.80586721,-2.802633612,1.296401093,-1.471999118,3.420846732
10.81585521,-3.147388955,0.8415888718,-1.945309006,3.794542949
10.82584321,-3.390113309,0.5746950522,-2.380064692,4.181847748
10.83583121,-3.564877229,0.4263798425,-2.755549493,4.525837208
10.84581921,-3.62536726,0.449754087,-3.080307359,4.77847883
10.85580621,-3.499261529,0.4062578192,-3.21798122,4.771297497
10.86579421,-2.95812394,0.4382710326,-3.365273752,4.501960259
10.87578221,-2.55850885,0.2790990052,-3.382832941,4.250579078
10.88577021,-1.911031458,0.1674981701,-3.223193429,3.750876264
10.89575821,-1.299375279,-0.07912656873,-2.922251272,3.199092
10.90574521,-0.7737819278,-0.532873427,-2.538332448,2.706625977
10.91573321,-0.2978980958,-0.8809625602,-2.177452823,2.36772868
10.92572121,0.1132734311,-0.9104050452,-1.900747375,2.110570729
10.93570921,0.3741873032,-0.941327168,-1.620954598,1.911441023
10.94569721,0.6423680949,-0.9548497313,-1.314923025,1.747397305
10.95568421,0.4470535505,-1.30797741,-0.9786414671,1.693635411
10.96567221,0.4104008639,-1.5764836,-0.7970901719,1.813582684
10.97566021,0.4268069816,-2.092706203,-0.7991320197,2.280393702
10.98564821,0.5959675151,-2.442398789,-1.049797331,2.72443821
10.99563621,0.6766345328,-2.440663628,-1.541185713,2.964781043
11.00562321,0.2316947508,-1.891385837,-1.837129669,2.646897857
11.01561121,1.05081248,-3.193967875,-2.062687329,3.944656724
11.02559921,1.024705832,-3.535703132,-2.520753379,4.461548641
11.03558721,0.7096175069,-3.514883536,-2.900165169,4.611824073
11.04557521,0.5624734944,-3.871708701,-2.947445755,4.898361071
11.05556221,0.571195786,-4.476922126,-2.793231289,5.307658371
11.06555021,0.5739463162,-4.632792816,-2.605476025,5.346090999
11.07553821,0.5842777616,-4.634218367,-2.351221401,5.229302291
11.08552621,0.8539612877,-4.885201913,-1.955858699,5.33102531
11.09551321,1.281192777,-5.295485832,-1.511445897,5.654033412
11.10550121,1.734056706,-5.545432667,-1.024593565,5.899878651
11.11548921,2.060814904,-5.630693257,-0.4296344027,6.011343472
11.12547721,2.154232945,-5.589855133,0.3374441309,6.000089044
11.13546521,2.390976182,-5.589245853,1.108242663,6.179371984
11.14545321,2.527701041,-5.788612518,1.901088561,6.596320577
11.15544021,2.521264426,-5.67221375,2.604535501,6.731596268
11.16542821,2.193289422,-5.048504121,3.093790161,6.314225994
11.17541621,1.6185473,-4.300959234,3.320682009,5.669645024
11.18540421,1.297777235,-3.599697399,3.498818895,5.184957162
11.19539221,1.250862685,-3.352192361,3.531053133,5.026946122
11.20537921,0.8669877148,-2.879138289,3.362713841,4.510980976
11.21536721,0.5748818707,-2.131912661,3.056318572,3.770493863
11.22535521,0.2818036348,-2.211940286,2.958870045,3.704997309
11.23534321,0.01574128926,-2.138954463,3.032355805,3.71086994
11.24533121,-0.633255794,-2.073129286,2.916652271,3.633970061
11.25531821,-1.51541294,-2.486156281,2.956044378,4.149174351
11.26530621,-2.128729144,-2.558543349,2.899129627,4.413908068
11.27529421,-2.87664299,-2.481997156,2.789821486,4.713649191
11.28528221,-3.209588712,-1.770700622,2.425652509,4.395523915
11.29526921,-3.07613654,-1.494625504,2.175826274,4.053485091
11.30525721,-2.725239866,-1.098101252,1.992037761,3.549784941
11.31524521,-2.438636252,-0.6012112981,1.579992806,2.967284796
11.32523321,-2.988216636,0.04510308266,1.917743039,3.550945129
11.33522121,-5.987792072,1.370994315,5.624400483,8.328694982
11.34520921,-5.764855866,2.18535592,7.282691892,9.541852276
11.35519621,-2.389689209,1.420973976,5.207534938,5.903236543
11.36518421,0.01237153888,0.5585647769,3.351770192,3.398015757
11.37517179,0.6792160785,-0.03091715276,2.420240034,2.513931617
11.38515979,0.01211543083,-0.3862270126,1.569640895,1.616505685
11.39514779,-0.7713255125,-0.06924331248,0.3936488834,0.868733058
11.40513479,-0.9660360396,0.3377996416,-1.256601288,1.620611312
11.41512279,-1.055763318,1.211735749,-2.554835045,3.018297834
11.42511079,-0.6309701174,1.615475319,-2.954934869,3.426298859
11.43509879,0.1480591017,1.575104241,-2.902974172,3.306075303
11.44508579,0.6576135403,1.501194997,-2.271079463,2.800686329
11.45507379,1.203548185,1.805558505,0.1390102431,2.174372001
11.46506179,2.205581439,2.542914911,1.430982216,3.657692692
11.47504979,2.71872139,3.104116636,1.388768827,4.353810393
11.48503779,2.006713541,3.213584991,0.7011934233,3.853011802
11.49502579,1.597817166,3.161473436,-0.1294105768,3.544669389
11.50501279,1.148845729,2.881177506,-0.2229264124,3.109779174
11.51500079,0.9073405194,2.415753173,0.1724928617,2.586287687
11.52498879,1.314695569,1.82874023,0.07104491271,2.253389147
11.53497679,0.78151604,1.410126806,-0.2479465751,1.631165974
11.54496479,-0.1390222299,1.793201877,0.2169819868,1.811623949
11.55495179,-0.001594535708,1.749987591,0.1570901445,1.757024879
11.56493979,0.5132615733,1.625267797,-0.1182599274,1.708484201
11.57492779,0.1097914141,1.784406203,-0.6041717434,1.887109734
11.58491579,0.4963175118,1.376367029,-0.6343170637,1.594702295
11.59490379,0.8083401418,1.093872546,-0.3117565451,1.395407853
11.60489079,0.7554596776,0.9118110082,-0.3754275342,1.242201462
11.61487879,1.289152592,0.5494061369,-0.2390710864,1.421589425
11.62486679,1.542646347,0.2927072302,-0.361518141,1.611251266
11.63485479,1.826955514,-0.2127295992,-0.2335483912,1.8540672
11.64484279,1.367224615,-0.1549117461,-1.230966949,1.84623412
11.65482979,1.189391491,-0.2999925685,-2.253561497,2.56577222
11.66481779,0.5495078784,-1.476533049,-1.031815462,1.883282215
11.67480579,-0.7212119508,-2.124313327,1.125266832,2.509796651
11.68479379,-1.293684769,-1.710126391,1.486636892,2.609260777
11.69478179,-1.645490685,-1.734165172,1.787631088,2.985061698
11.70476879,-1.491355741,-1.374352956,1.372492226,2.448820717
11.71475679,-1.548754349,-1.360106507,0.8033078818,2.212201007
11.72474479,-1.585307633,-1.406859674,0.2087191401,2.129792974
11.73473279,-0.8997432321,-1.214868395,-0.1561899474,1.519815252
11.74472079,-1.084919874,-1.353458515,-0.345113339,1.768616494
11.75470779,-0.7528681916,-1.652330757,-0.6211356854,1.919066696
11.76469579,-0.470793246,-1.449005527,-0.9091420466,1.774204768
11.77468379,-0.2470173794,-1.423245034,-0.8045277572,1.653453636
11.78467179,-0.6187862742,0.0319486016,0.09681702733,0.6271289365
11.79465979,0.02056699634,0.109761301,0.586850975,0.5973814622
11.80464679,0.2099945641,0.9065765807,0.5346981968,1.07325718
11.81463479,0.768785482,1.811519742,0.6879931878,2.084698904
11.82462279,1.163515223,1.609718004,0.7056038319,2.107803713
11.83461079,0.4081654733,2.350156769,0.6545857058,2.473523467
11.84459879,0.4002863503,2.001349598,0.3939419751,2.078658138
11.85458579,0.5961411774,1.892512157,0.01442902789,1.98423657
11.86457379,0.716648199,1.450535159,-0.2444358337,1.636271911
11.87456179,0.8777027375,1.138462828,-0.4942319562,1.520106882
11.88454979,0.974376508,1.166906024,-1.482235254,2.123228814
11.89453779,1.509689101,0.5953336769,-1.146441354,1.986935114
11.90452479,0.584413417,-1.361629415,2.71456285,3.092640485
11.91451279,-4.579940418,-6.365635055,3.330640109,8.519995741
11.92450079,-2.590065104,-4.798749075,1.697933046,5.711340172
11.93448879,2.795864875,-1.452671147,0.2917415625,3.164210328
11.94447579,1.057190623,-1.54458353,0.9879951118,2.116488752
11.95446379,-0.5427479124,-1.431856229,0.2206720184,1.547088781
11.96445179,1.054802036,-1.455624576,-1.351950518,2.249271092
11.97443979,1.626076174,-1.55990762,-0.7593809666,2.37783409
11.98442779,2.815672318,-1.196344416,0.2277407174,3.067754293
11.99441579,5.07077675,-0.1737921131,3.165125899,5.980050376
12.00440279,7.513584405,-0.4942224544,5.695006197,9.440937561
12.01439079,8.389562214,-2.537354794,1.817825087,8.951391598
12.02437879,7.252606214,-2.857104519,-3.184569061,8.420500177
12.03436679,3.130167736,-0.7713208348,-4.669459535,5.674216971
12.04435379,1.051866733,-0.2122422338,-3.546398858,3.705187614
12.05434179,-0.4780227435,0.06416383624,-1.151193678,1.248146476
12.06432979,-8.68892036,1.608952019,1.150911404,8.911265941
12.07431779,-17.20053326,2.204523677,0.8384139799,17.36148632
12.08430579,-14.19098657,1.320212417,1.162917053,14.29963065
12.09429279,-2.259879853,-0.1065818775,2.076627968,3.070960821
12.10428079,1.444628302,1.791738904,1.90196038,2.985754933
12.11426879,1.388355283,1.965694739,-0.5077974965,2.459541521
12.12425679,1.636055033,1.146105139,-1.402168892,2.4405554
12.13424479,1.389827612,1.63700579,-1.346582921,2.534698071
12.14423179,0.4719989419,1.561315337,-0.6476032533,1.754958278
12.15421979,-0.5105841333,1.117965413,-0.3285667419,1.272202392
12.16420779,-1.510734583,0.7288981158,-0.3119809686,1.706148753
12.17419579,-1.31528146,0.8407518429,0.6111604817,1.676408695
12.18418379,-0.3062163448,1.41303755,0.9229082926,1.71528519
12.19417079,-0.2709137803,1.466071211,1.402775102,2.04708013
12.20415879,-0.460425548,0.6697114295,2.038001992,2.194073199
12.21414679,0.3395027894,0.5857278711,1.19002533,1.36912365
12.22413479,-0.03577618897,-0.5708665878,0.1726513213,0.5974755857
12.23412279,-0.5673120654,-1.050710739,-0.8717562653,1.478443446
12.24410979,-1.160742474,-2.475157376,-1.012324499,2.915223493
12.25409779,-1.128972797,-3.672933775,0.06094318986,3.84301134
12.26408579,-1.896291797,-1.701566067,0.5236555839,2.601050717
12.27407379,-1.347888165,0.251812681,0.01630057544,1.37130516
12.28406179,0.4806159836,-0.01056299508,0.5558415824,0.7348899001
12.29404879,0.5548411238,-0.01356554031,0.3084628451,0.6349661592
12.30403679,0.208091003,0.5159068537,0.1249678624,0.570156745
12.31402479,-0.1037278515,0.4627275968,-0.1208099073,0.4893580792
12.32401279,-0.2128310484,0.3759543318,-0.3387661864,0.549000222
12.33400079,-0.5367577323,0.2185870475,-0.2981531806,0.651754923
12.34398779,-0.4793921614,0.08572427452,-0.08710845664,0.4947255591
12.35397579,-0.03058006078,0.004484229684,-0.1559557664,0.1589888346
12.36396379,-0.2753825149,-0.112874651,0.001375849843,0.2976207474
12.37395221,-0.4274308795,-0.210792709,0.009792332053,0.4766829268
12.38394021,-0.8155132136,-0.725077545,-0.00517010808,1.091249732
12.39392721,-0.6471704131,-1.029387113,-0.1832485226,1.229653363
12.40391521,-0.2459581563,-1.031337159,0.1408781362,1.069578609
12.41390321,0.08576812863,-0.8776688236,0.3548540694,0.9505683281
12.42389121,0.3885764238,-0.9565559489,0.5880864917,1.188207323
12.43387921,1.558678243,-0.8331796986,1.616129914,2.3948992
12.44386621,1.345771473,-1.137981017,0.6190578774,1.867975993
12.45385421,1.589788939,-0.5783785057,1.337460241,2.156559867
12.46384221,4.413106199,-1.307229844,1.853000182,4.96164951
12.47383021,1.832825241,2.525451032,2.020135825,3.717270508
12.48381821,-2.926495181,1.639207851,-1.327032024,3.607269108
12.49380521,-4.090827261,-1.08758562,-5.621903722,7.037294339
12.50379321,-0.9229543394,0.0832374537,1.373134396,1.656584213
12.51378121,-0.9000274068,1.25027504,0.2535076426,1.561250503
12.52376921,-0.5675453693,1.303944293,0.1178807446,1.426980846
12.53375721,-0.2160698211,1.211447774,0.0335849449,1.231023893
12.54374421,0.1823857659,1.358802286,0.08110965192,1.373385232
12.55373221,0.90457771,2.578356054,0.1319370125,2.735614767
12.56372021,0.1095081165,2.280680737,-0.3522397792,2.310318055
12.57370821,-2.334769821,-1.223508241,-0.972123722,2.809474517
12.58369621,-1.129472149,-0.3372305614,-0.7260853127,1.38442467
12.59368321,-0.6160050461,1.012365868,-0.5814909786,1.320029782
12.60367121,-0.0435357365,0.6995877779,-0.6980034748,0.989205373
12.61365921,0.3376793352,0.906413151,-0.5126183796,1.094709887
12.62364721,-0.01097785503,0.6000781077,-0.3926952025,0.7172334144
12.63363521,-0.02022464186,0.03937865853,-0.3003474945,0.3035923786
12.64362221,-0.001952970028,-0.4538784206,-0.1649458605,0.4829250166
12.65361021,0.2529294991,-0.6495379508,-0.2175830805,0.7302159119
12.66359821,0.03533180058,-0.9389347798,-0.1191101217,0.9471188299
12.67358621,0.02459572792,-0.7424999088,-0.1433908309,0.7566187909
12.68357321,0.0320216918,-0.9818387246,0.2166695993,1.005971364
12.69356121,0.1839574975,-0.8485853577,0.1498401636,0.881129698
12.70354921,-0.1782623094,-1.458902525,0.4710943776,1.543406602
12.71353721,0.2363611212,-1.189989662,0.4010374251,1.277800059
12.72352521,0.348917976,-1.440617112,0.6509276877,1.618897239
12.73351221,0.6054014128,-1.370580917,0.7711433718,1.685130565
12.74350021,0.6162117451,-1.468394895,0.7529773884,1.761498064
12.75348821,1.10925277,-1.385839811,0.621411674,1.880730219
12.76347621,1.921915173,-0.8492373222,0.4723842734,2.153626909
12.77346421,2.635036039,-0.330288747,1.293095954,2.95374385
12.78345121,2.410306199,-0.2770539415,1.203407121,2.708232553
12.79343921,1.201103757,-1.023294899,-0.3254121691,1.611110103
12.80342721,-0.1690485594,-1.383785684,0.1739423865,1.40488298
12.81341521,-1.005989479,-1.141068347,-0.5063089415,1.603246877
12.82340321,-0.5339887834,-0.7836818486,-1.040443613,1.40777277
12.83339021,-0.499777894,1.357814691,-0.3835206288,1.49683892
12.84337821,-0.4431417632,2.350674248,-0.09836770892,2.394101136
12.85336621,0.2745624429,0.2309515697,0.4274726871,0.5580824856
12.86335421,0.01044838965,0.09091484785,-0.2049788225,0.224479389
12.87334221,-1.226592062,1.480276437,-0.1819948795,1.931027849
12.88332921,-0.7485827672,2.185740666,-0.224138394,2.321223048
12.89331721,0.5916844296,2.529842291,-0.347103585,2.621196936
12.90330521,1.406848857,2.322049788,0.03760227442,2.71524453
12.91329321,1.120488779,1.290041369,0.06647582531,1.710006103
12.92328121,0.7819893721,0.8670719147,-0.07822858259,1.170231086
12.93326821,-0.3366718599,0.179201957,-0.04074953824,0.3835646067
12.94325621,0.02020914674,0.1189820677,-0.02298087314,0.12285464
12.95324421,-0.2010749289,-1.360019091,-0.3193335499,1.411402484
12.96323221,0.6694026965,-0.4537550443,-0.1710803206,0.8265966891
12.97322021,0.8479465494,0.2035825074,0.1403553951,0.8832659989
12.98320721,-0.4314444083,-0.06097827315,0.2134014443,0.4851832681
12.99319521,0.402299839,0.7980133742,0.1451609293,0.9053961571
13.00318321,0.02169404715,1.377916249,0.1772172658,1.389435058
13.01317121,0.5013037249,1.270617503,-0.01464815229,1.366012017
13.02315921,1.318224071,1.021335497,-0.007778843343,1.667603493
13.03314621,0.9944330424,0.3691926116,0.07034989804,1.063084836
13.04313421,0.697966345,0.007482097149,0.4129046416,0.8109890527
13.05312221,0.6253158599,0.7610841143,0.01127694011,0.9850868607
13.06311021,1.207584811,1.726976312,0.2469055514,2.121714073
13.07309821,0.4486135876,0.8444595623,-0.1617871946,0.9698150338
13.08308521,0.3503653081,1.708058816,-0.182137844,1.753110082
13.09307321,0.1738421068,1.952706903,-0.2169507042,1.972397763
13.10306121,-0.103809274,1.457685134,-0.2043543398,1.475595816
13.11304921,-0.5085457939,2.312645711,0.1963740599,2.376028573
13.12303721,0.6729328068,1.728286673,0.3534127307,1.888045006
13.13302421,0.1802358909,1.085580609,0.1524743342,1.110953941
13.14301221,-0.3985663918,-0.7045263362,-0.1587188682,0.8248661747
13.15300021,-0.7979875003,-2.486681653,-0.3129102373,2.630262822
13.16298821,-2.161846751,-4.994571158,-0.6934692514,5.486366924
13.17297521,-2.41381906,-6.872674021,-0.3002866834,7.29042816
13.18296321,-1.530599621,-7.037208822,0.1695677921,7.203734896
13.19295121,-0.8499471742,-3.454961269,0.3667847282,3.576828009
13.20293921,-0.9770235425,-0.746233356,0.129519335,1.236209724
13.21292721,-0.1569302049,0.1837312102,0.4047989389,0.471430194
13.22291421,-0.8654475582,0.5679394716,0.2085263282,1.055953573
13.23290221,-0.8966833842,0.5519058216,-0.1782871601,1.067907973
13.24289021,-0.8395597418,0.1286434221,0.131654592,0.8595013797
13.25287821,-0.1162009858,0.4938844854,0.03369267985,0.5084877094
13.26286621,-0.5675702199,1.332278146,-0.06782828629,1.449724694
13.27285321,-1.026082851,0.1981200385,-0.4771936083,1.148830408
13.28284121,-0.7502376755,-0.2055600357,-0.2617237115,0.8207379601
13.29282921,-0.4536496483,-0.03343554854,0.2522042982,0.5201182052
13.30281721,-0.2727350418,0.2713277632,0.2886324517,0.4809489061
13.31280521,-0.2919118626,0.1298444402,0.003103117347,0.3195023373
13.32279221,-0.1046020103,0.06044910014,-0.08434213892,0.1473406619
13.33278021,0.0009377472103,-0.1776454282,-0.1629456742,0.2410603042
13.34276821,0.02372595459,-0.2806564111,-0.160690257,0.3242719548
13.35275621,-0.1339203881,-0.2960609007,-0.1590205845,0.3617654953
13.36274421,-0.1998258175,-0.2611050761,-0.07101618826,0.336377046
13.37273083,-0.1706642912,-0.1645833331,0.01159239739,0.2373780898
13.38271883,-0.1035843024,-0.01439935327,0.02913711414,0.1085634399
13.39270683,0.02172883809,0.1307829183,-0.03300417021,0.1366220677
13.40269483,0.113796026,0.07770715714,-0.1902581647,0.2349172344
13.41268283,0.1340197907,-0.06174776673,-0.2514329043,0.2915348973
13.42266983,0.123622418,-0.1827021003,-0.3361000022,0.4020270777
13.43265783,-0.3181722929,2.740877659,0.1747621661,2.764812067
13.44264583,-1.133230008,0.5496359324,-0.6083022165,1.398692781
13.45263383,-0.03669230148,-0.9863176918,-0.5869651419,1.148345328
13.46262183,-0.1560939069,-1.039099338,0.04791033089,1.051849867
13.47260883,-0.06808161691,-0.1378112715,0.07562584072,0.1713076791
13.48259683,-0.1742256841,0.7835029238,-0.07962387443,0.8065800531
13.49258483,0.08879157767,0.9165966618,-0.2684301755,0.9592122517
13.50257283,0.2180138741,0.853595252,-0.3688824168,0.9551068741
13.51255983,0.2703254043,0.1943667108,-0.2944172484,0.4444499506
13.52254783,0.1167379063,-0.2623131108,-0.0550199604,0.2923407309
13.53253583,0.09828672498,0.1854467833,0.1161578625,0.2398821352
13.54252383,0.0307208325,0.6072771996,0.1841697514,0.6353328766
13.55251183,0.0304471828,2.611657702,-0.07790508538,2.612996782
13.56249883,-0.07001017481,3.416225805,0.01897216827,3.416995774
13.57248683,0.2279367453,2.674207706,0.1503924331,2.688114562
13.58247483,0.5363947664,1.883922012,0.03810367316,1.959166502
13.59246283,0.2727274404,1.829170439,-0.02533452362,1.849563892
13.60245083,0.3847980992,1.891017609,0.1305268103,1.934180556
13.61243783,0.5325253715,4.875087399,-0.04384300768,4.904282071
13.62242583,0.7747361934,7.541417152,-0.537528103,7.60013982
13.63241383,0.701392521,9.722871809,-0.9896687311,9.798246368
13.64240183,0.8059077732,8.539643283,-1.09234613,8.646861558
13.65238983,1.420553415,3.467947935,-0.05266996443,3.747987328
13.66237683,2.000473539,0.1533291972,-0.02231546,2.006465101
13.67236483,1.816053088,-1.506437464,0.2559723902,2.373378292
13.68235283,1.000305401,-4.646696325,0.567469794,4.786900834
13.69234083,0.4554826042,-5.038282018,-0.9855221781,5.153930933
13.70232883,-0.8547743431,-6.300056777,-0.3086875243,6.365268459
13.71231583,-4.970967702,-18.0794376,1.5122265,18.81125761
13.72230383,-1.5157857,-17.06619114,0.3325408021,17.1366003
13.73229183,1.107355641,0.7608753687,-0.4401038423,1.413810183
13.74227983,-0.3906078927,1.089460237,0.4703204986,1.249279595
13.75226783,-0.3507601413,1.081365352,0.311114265,1.178633016
13.76225483,0.107032844,0.8987474513,0.2972107556,0.9526474921
13.77224283,-0.1239656405,0.7355370444,0.1572759216,0.7623109203
13.78223083,0.03689081445,-0.1293643838,0.2808885455,0.3114393215
13.79221883,0.05427692547,-0.3042423248,0.4848721719,0.5749873041
13.80220583,0.06148656065,-0.06403461277,0.6821085499,0.6878612525
13.81219383,-0.1954504739,0.5439518541,0.6679623811,0.8833222798
13.82218183,-0.1229067189,0.7116611087,0.5296191591,0.8955802861
13.83216983,0.01187511027,0.2486984539,0.2947055161,0.385802126
13.84215783,0.273869694,-0.2141636288,0.1574719495,0.3816648845
13.85214483,0.3001053467,-0.3607083017,0.1755939326,0.5010059153
13.86213283,-0.1432718401,-0.4128672194,0.3702147049,0.5727522054
13.87212083,-0.009229939543,-0.5652439052,0.4590249936,0.7282100033
13.88210883,0.135685297,-0.5124739534,0.3173685931,0.6178696275
13.89209683,0.08691827595,-0.3489460427,0.2456795365,0.4355187275
13.90208383,0.3623903263,-0.4339458472,0.1835480462,0.5944120054
13.91207183,0.1764093999,-0.5380917746,0.2282541029,0.610543176
13.92205983,0.1275581058,-0.5800987566,0.2894314738,0.6607240087
13.93204783,0.2402074197,-0.7752823234,0.3923914397,0.9015172363
13.94203583,0.2398198955,-0.7170861554,0.3115033972,0.8177777834
13.95202283,0.2647655793,-0.7289004546,0.03913424492,0.7764844969
13.96201083,0.3552850822,-0.634402433,0.1537915657,0.7431996921
13.97199883,0.1825902723,-0.546822837,0.177284655,0.6031453154
13.98198683,-0.5961243667,-0.8348414773,0.1813256657,1.041731035
13.99197483,-1.4204277,-0.9819346189,0.1927482015,1.737516134
14.00196183,-1.512299444,-0.5562678444,-0.001579479128,1.611361542
14.01194983,-1.514073343,0.09786894143,-0.07009861395,1.518851617
14.02193783,-1.314984129,0.9230022866,-0.3716338241,1.649008241
14.03192583,-1.378033924,2.0520242,-0.6059118748,2.544977409
14.04191383,-2.213181649,3.576774559,-0.3566368854,4.22121773
14.05190083,-1.12807715,3.084194587,-1.632493494,3.66740362
14.06188883,-0.5124481525,0.8423838007,-1.638712154,1.912482967
14.07187683,-0.2258260466,-1.965525169,0.9292124681,2.185800175
14.08186483,-2.976096527,-0.2184502226,0.5975141037,3.043336022
14.09185283,-1.309537155,0.1893012679,0.5427036197,1.430122285
14.10183983,-0.7231759574,-0.3721255749,0.8169196151,1.152743929
14.11182783,-0.5358048555,-0.6560453171,0.6170126675,1.047944146
14.12181583,-0.264828583,-0.4500332916,0.7129738086,0.883739664
14.13180383,0.03706886217,-0.3263787138,0.781429355,0.8476609005
14.14179083,0.3273681358,-0.4238056058,0.8550159793,1.008877303
14.15177883,0.5810398659,-0.50339849,0.8617094332,1.154798906
14.16176683,0.7636264837,-0.4497116947,0.8503044391,1.228162715
14.17175483,0.9418884277,-0.3316505635,0.912233908,1.352522314
14.18174283,1.103896574,-0.2016605276,0.9864042306,1.494070922
14.19172983,1.19386812,-0.06423575699,1.007978556,1.563799248
14.20171783,1.16528386,0.1318266463,0.9895332219,1.534418696
14.21170583,1.019939036,0.3478941286,0.9863937056,1.460917008
14.22169383,0.8285795479,0.5021442622,0.9330660756,1.34510417
14.23168183,0.6144950026,0.6468932551,0.9216334534,1.282763896
14.24166883,0.4519957633,0.7237133896,0.8802322429,1.225916001
14.25165683,0.3330530182,0.7198530579,0.8803100109,1.184929725
14.26164483,0.2026115772,0.71201545,0.9136789012,1.175936472
14.27163283,0.05316186145,0.6469938272,0.8949667878,1.105618717
14.28162083,-0.0627969034,0.5811863387,0.8023696961,0.9927326631
14.29160783,-0.1421228622,0.5115372294,0.7470513815,0.9164905955
14.30159583,-0.202632481,0.3807426167,0.7088012356,0.829713236
14.31158383,-0.2926902732,0.2752839893,0.6270144761,0.744712041
14.32157183,-0.350488392,0.2442838061,0.6333880873,0.7640007591
14.33155983,-0.4211774285,0.2115809137,0.6516639984,0.8042529926
14.34154683,-0.5093668891,0.192459349,0.6816071512,0.8724010186
14.35153483,-0.5317668414,0.2147951281,0.7438020837,0.9392307812
14.36152283,-0.4934694792,0.2229613495,0.7874819541,0.9556943645
14.37151083,-0.4113006042,0.2226298124,0.8552194624,0.9747474284
14.38149921,-0.282398589,0.2692268586,0.9344211678,1.012608011
14.39148621,-0.1464196886,0.3354284495,1.097519454,1.156935574
14.40147421,-0.07045997187,0.3239825249,1.19425579,1.239425745
14.41146221,0.02077998117,0.2928893709,1.178729678,1.214750858
14.42145021,0.1895988911,0.3944069749,1.210222343,1.286912088
14.43143721,0.3067538501,0.5259938854,1.291231423,1.427601513
14.44142521,0.3447223064,0.6528018665,1.358450868,1.546082956
14.45141321,0.3113591172,0.8033992445,1.428371288,1.668124511
14.46140121,0.2229657349,0.937155472,1.491884329,1.775864001
14.47138921,0.2087974928,1.080188892,1.550401656,1.90109172
14.48137621,0.2794251336,1.189002067,1.626580204,2.034101148
14.49136421,0.3776424229,1.194621826,1.794075451,2.188250861
14.50135221,0.5030400556,1.066435656,1.88438058,2.222886519
14.51134021,0.6378223233,0.8779921746,1.755322444,2.063696794
14.52132821,0.8180006191,0.7064646882,1.544244976,1.884916421
14.53131521,0.9170058938,0.5512094182,1.342393245,1.716610397
14.54130321,0.6982291042,0.1929908609,1.2133919,1.413184084
14.55129121,0.06901234746,-0.8301870936,1.036663315,1.32990381
14.56127921,-0.4148907946,-2.307223004,0.4931587728,2.395541261
14.57126721,-0.5643809292,-3.561331478,-0.1977026204,3.611190116
14.58125421,-0.3927235615,-4.102763767,-0.7202302033,4.183973454
14.59124221,-0.07423756555,-3.499426421,-0.6822782654,3.566090313
14.60123021,0.2850227463,-1.977694979,-0.4518910251,2.048589977
14.61121821,0.7395220681,-0.3510042626,-0.242786992,0.8538398005
14.62120621,1.051165798,0.8532999676,-0.2099917135,1.370097402
14.63119321,1.282111229,1.636971291,-0.2524670575,2.094570081
14.64118121,1.429572745,2.00325082,-0.2654695109,2.475311322
14.65116921,1.585236443,1.869820282,-0.3709654874,2.479277689
14.66115721,1.635594126,1.439001526,-0.4997481829,2.235093238
14.67114521,1.566382535,0.7979736131,-0.6937797385,1.889880011
14.68113221,1.413321286,0.0853442055,-0.9399345805,1.699481599
14.69112021,1.292886331,-0.561520983,-1.158096024,1.824293639
14.70110821,1.123756203,-1.003461728,-1.385206558,2.046597335
14.71109621,0.8257361931,-1.156502073,-1.368470072,1.972827322
14.72108321,0.7494538562,-1.166207281,-1.220213335,1.846792107
14.73107121,0.8290954185,-0.9352141964,-1.063966962,1.641356299
14.74105921,0.8800030321,-0.5569946533,-0.9170422196,1.387665238
14.75104721,0.9087150536,-0.2112055224,-0.8127758396,1.237325902
14.76103521,0.9214972132,0.08802515388,-0.7712161696,1.204856806
14.77102221,0.9042140132,0.2994283122,-0.7411907172,1.20690678
14.78101021,0.8282742501,0.3683330709,-0.6869279712,1.137355495
14.79099821,0.8111418352,0.3440940231,-0.7581417954,1.162381502
14.80098621,0.7951425375,0.2586878371,-0.8715210611,1.207774818
14.81097421,0.7904143327,0.1686945105,-0.9235601109,1.227263596
14.82096121,0.734005951,0.06922109306,-0.9208546042,1.179631086
14.83094921,0.6569018611,-0.01360120833,-0.871495918,1.091425757
14.84093721,0.583669505,-0.05768219769,-0.818535347,1.006974399
14.85092521,0.507319852,-0.06511751711,-0.7723154461,0.926328706
14.86091321,0.4457634354,-0.04673620999,-0.7495580828,0.87334222
14.87090021,0.3293515114,-0.05400429904,-0.7586961114,0.8288598626
14.88088821,0.1674837714,-0.1098171419,-0.7166756809,0.7441334893
14.89087621,0.006902784258,-0.1860461229,-0.5819698656,0.6110235124
14.90086421,-0.1140660211,-0.2226976401,-0.4452011526,0.5106949797
14.91085221,-0.2107930744,-0.2786239189,-0.3487992775,0.4936860788
14.92083921,-0.3143479215,-0.2535995901,-0.3296554935,0.5213445235
14.93082721,-0.3539837844,-0.1357828724,-0.3009818991,0.4840781049
14.94081521,-0.3169726635,-0.08955069244,-0.2362181385,0.4053270345
14.95080321,-0.2768283851,-0.06509939075,-0.2194167674,0.3591874208
14.96079121,-0.1491035606,0.009409339428,-0.2319999572,0.2759427252
14.97077821,-0.03618278973,0.08528397918,-0.1936387142,0.2146590389
14.98076621,0.07936133444,0.106971302,-0.1453898478,0.197178317
14.99075421,0.2296498333,0.1198486251,-0.1232148671,0.2868529978
15.00074221,0.4877428624,0.1351320773,-0.167516863,0.5331188212
15.01072921,0.6347495384,0.09909217894,-0.2753734517,0.6989683643
15.02071721,0.7588186106,0.02536463678,-0.445727402,0.8804101121
15.03070521,0.7473948323,-0.1053340816,-0.5562912698,0.9376322739
15.04069321,0.6724664913,-0.1660363662,-0.6181489277,0.9283788847
15.05068121,0.5954737177,-0.1469890612,-0.657511214,0.899175027
15.06066821,0.4377998201,-0.1120577949,-0.6898299444,0.8246762904
15.07065621,0.2254278512,-0.07725867569,-0.7453761542,0.7825421588
15.08064421,0.03975865446,-0.04943528473,-0.7438628948,0.746563195
15.09063221,-0.09445285186,-0.04622691751,-0.6754493022,0.6835861533
15.10062021,-0.1660373164,-0.04438387513,-0.5961505695,0.6204303509
15.11060721,-0.2549654996,-0.03808525443,-0.5241117032,0.5840813043
15.12059521,-0.3402021164,-0.07287794173,-0.5091790473,0.6166943948
15.13058321,-0.4111447759,-0.05805817366,-0.5112734834,0.6586435706
15.14057121,-0.4661411282,-0.02688140452,-0.4952918736,0.6806792206
15.15055921,-0.5081906486,-0.02501731217,-0.4815100229,0.7005251626
15.16054621,-0.4841481404,-0.01988871932,-0.4456536905,0.6583328906
15.17053421,-0.4548057159,-0.01494314432,-0.3707683631,0.5869759074
15.18052221,-0.3978582209,-0.007378601432,-0.2946095852,0.4951165675
15.19051021,-0.3213329322,0.01553254366,-0.1948549167,0.3761177366
15.20049721,-0.1989975594,0.02846307635,-0.1309460922,0.2399105134
15.21048521,-0.09738537669,0.03410739362,-0.05249758121,0.1157722848
15.22047321,-0.01005976908,0.02167855203,-0.01240896106,0.02692844011
15.23046121,0.07008004904,0.01138452888,-0.002593824863,0.07104610263
15.24044921,0.1496675976,0.01656340778,0.03876941521,0.1554921343
15.25043721,0.1800682951,-0.006553559303,0.08460223038,0.1990604868
15.26042421,0.2149752954,-0.01934785187,0.1288001641,0.2513527388
15.27041221,0.2094768662,-0.002635924816,0.1440953108,0.2542655387
15.28040021,0.2256380586,0.02306901991,0.1487824023,0.2712580255
15.29038821,0.2203615312,0.05028722405,0.1529946633,0.2729384113
15.30037521,0.2481007954,0.0748402673,0.1279124471,0.2889924989
15.31036321,0.2370605213,0.09373262107,0.1319108462,0.2870260726
15.32035121,0.2214427545,0.06218747735,0.1151783808,0.2572357581
15.33033921,0.1971814873,0.04470605671,0.1094329798,0.229901604
15.34032721,0.1815314877,-0.002723048329,0.07258843146,0.1955253856
15.35031421,0.1304056998,-0.0333963722,0.07215814948,0.1527342881
15.36030221,0.1171454573,-0.05598884404,0.07045419775,0.1477213688
15.37029021,0.08408244945,-0.0758705467,0.04324476443,0.1212283293
15.38027792,0.0349894461,-0.1020263118,0.03603171229,0.1137185733
15.39026592,-0.01764294997,-0.07936484277,0.03277247429,0.08765892438
15.40025292,-0.09144847937,-0.08571141064,0.02556512319,0.1279173398
15.41024092,-0.1233171934,-0.05834468722,0.006855275631,0.1365951226
15.42022892,-0.1791657043,-0.04442305148,-0.01218559742,0.1849925562
15.43021692,-0.2253045481,-0.01057585895,-0.03370693244,0.2280573293
15.44020492,-0.2483099795,-0.001103369594,-0.05644317269,0.2546466083
15.45019192,-0.2606375181,-0.00899535656,-0.08051144522,0.2729375846
15.46017992,-0.2820221744,0.00256283462,-0.1280984251,0.3097616527
15.47016792,-0.2400442093,0.002662822008,-0.1640425388,0.2907546518
15.48015592,-0.281279505,-0.03726722896,-0.2172568059,0.3573618978
15.49014392,-0.3753193972,-0.05025564909,-0.2170077145,0.4364431559
15.50013092,-0.2432810817,-0.03181762397,-0.2495042733,0.3499291761
15.51011892,-0.2515532108,-0.03864658713,-0.2782667271,0.3771007133
15.52010692,-0.2115460496,-0.05816810131,-0.2700255883,0.3479210793
15.53009492,-0.1487528007,-0.06717573702,-0.2676960576,0.3135301494
15.54008292,-0.1203405221,-0.03874014258,-0.2605799961,0.2896283382
15.55006992,-0.07024216309,-0.01221190989,-0.232646714,0.2433260894
15.56005792,-0.02547807276,0.0005338507891,-0.2338710845,0.235255396
15.57004592,0.005545937866,0.0249260956,-0.2292833591,0.2307009458
15.58003392,0.0673324424,0.05904284477,-0.2169796479,0.2347336425
15.59002092,0.109419385,0.063192029,-0.2022680533,0.2384915087
15.60000892,0.1397656303,0.0408772999,-0.1893772451,0.2388914524
15.60999692,0.1409648211,0.01765508294,-0.1683495247,0.2202824215
15.61998492,0.14784619,-0.008567925096,-0.1477146642,0.2091686574
15.62997292,0.1604035972,-0.02249482334,-0.1643792653,0.2307723422
15.63995992,0.1781050924,-0.04402894914,-0.1744878952,0.2531916228
15.64994792,0.1567417053,-0.04564044178,-0.182388653,0.2447787426
15.65993592,0.1486232118,-0.03194158494,-0.189093107,0.2426217778
15.66992392,0.1262504491,-0.02510969818,-0.1796299366,0.2209900156
15.67991192,0.1498901573,-0.02020505369,-0.1469709349,0.2108927669
15.68989892,0.1381129148,-0.009166095257,-0.1328323309,0.1918427029
15.69988692,0.1003135892,-0.007455784678,-0.1468867715,0.1780284487
15.70987492,0.1435988456,-0.003408926725,-0.1841440237,0.233540726
15.71986292,0.1986637565,0.02976349711,-0.2853944099,0.3490030417
15.72985092,0.2426664662,0.067093876,-0.3525005651,0.4331803901
15.73983792,0.2201826795,0.06814871371,-0.320103482,0.394450122
15.74982592,0.2281408131,0.02022727311,-0.3195129132,0.3931232312
15.75981392,0.2380646344,-0.008257437944,-0.3629121172,0.4341061625
15.76980192,0.2522314147,-0.02012260795,-0.3544418772,0.4354935708
15.77978992,0.2181512837,-0.05416685164,-0.3295186687,0.3988816659
15.78977692,0.2430078705,-0.08897240281,-0.3050679882,0.4000442364
15.79976492,0.3149035531,-0.07245284915,-0.2703366601,0.4213022347
15.80975292,0.3286630748,-0.06179688334,-0.2289091372,0.4052624639
15.81974092,0.3656967806,-0.03755432725,-0.2081772129,0.422471555
15.82972892,0.3627590664,-0.0004759633541,-0.2160896834,0.4222429609
15.83971592,0.3566936034,0.01410289943,-0.2329004101,0.4262297731
15.84970392,0.3496696356,0.01049984515,-0.2419694599,0.4253566977
15.85969192,0.3391962491,-0.02881098568,-0.2172719904,0.4038456216
15.86967992,0.327661593,-0.07494902551,-0.2358918822,0.4106390824
15.87966792,0.292600957,-0.1179108578,-0.2252195259,0.387610791
15.88965492,0.2471355662,-0.1581420404,-0.23535043,0.376131251
15.89964292,0.2499219838,-0.1890135849,-0.2463490427,0.3985912493
15.90963092,0.2618276457,-0.1921009147,-0.2163960958,0.390235503
15.91961892,0.3037590525,-0.1826594156,-0.2268216813,0.4208112393
15.92960592,0.3607341025,-0.1490075201,-0.1943591094,0.4360135286
15.93959392,0.4618495642,-0.1394549239,-0.2354147494,0.5368172874
15.94958192,0.5595389231,-0.1269354504,-0.2935559535,0.6444932217
15.95956992,0.6588043258,-0.1147445905,-0.3947765189,0.7765551884
15.96955792,0.7530474818,-0.1337392706,-0.4685373902,0.8969358887
15.97954492,0.7980179058,-0.1513212633,-0.5354628664,0.972857227
15.98953292,0.8241687007,-0.1311390138,-0.5746093905,1.013226253
15.99952092,0.829917537,-0.1237814623,-0.5805910921,1.020377864
16.00950892,0.8229292372,-0.1721660024,-0.6248013049,1.047487629
16.01949692,0.728418571,-0.2071592492,-0.6347988743,0.9881691049
16.02948392,0.5732234542,-0.1973014283,-0.5704654688,0.8324324796
16.03947192,0.4675920416,-0.2488592523,-0.5986098719,0.7993165978
16.04945992,0.2999720301,-0.2669891292,-0.5475636792,0.6790378463
16.05944792,0.2003274355,-0.2118592411,-0.4559728932,0.5412270308
16.06943592,0.1478543761,-0.164426043,-0.3940269059,0.4518340876
16.07942292,0.1108971226,-0.1300660497,-0.3595213534,0.3980841025
16.08941092,0.1570484649,-0.02776374936,-0.3366242051,0.3724928208
16.09939892,0.2472661053,0.03770226181,-0.3078723129,0.3966703271
16.10938692,0.3149406829,0.06088120937,-0.3250460969,0.4566717864
16.11937492,0.3641845445,0.06874571443,-0.31906498,0.4890386663
16.12936192,0.4697294913,0.07356440485,-0.3634945365,0.5984862527
16.13934992,0.5393705606,0.03597908735,-0.3966177706,0.670463088
16.14933792,0.5817644821,-0.0005870604515,-0.4227267945,0.7191301691
16.15932592,0.6130769797,-0.02007056773,-0.4399346385,0.7548567394
16.16931392,0.588411743,-0.03543588102,-0.4148857514,0.7208427483
16.17930092,0.5614036732,-0.006128466725,-0.3694645436,0.6720979775
16.18928892,0.479887786,0.006672257781,-0.3807953147,0.6126515142
16.19927692,0.3557900624,0.05218055248,-0.360356884,0.5090839444
16.20926492,0.2145991733,0.060174281,-0.3429415369,0.4090020134
16.21925292,0.1116454931,0.08344035208,-0.2888998888,0.3207649517
16.22923992,0.008683407605,0.1115613663,-0.2250359416,0.2513215371
16.23922792,-0.0528230153,0.1544144404,-0.1510358461,0.2223643792
16.24921592,-0.086857538,0.146588527,-0.1189387252,0.2077952081
16.25920392,-0.1233654329,0.1565054047,-0.08023198485,0.2148258437
16.26919192,-0.1483687849,0.1277792037,0.02761172175,0.1977453625
16.27917892,-0.1471222316,0.07942506909,0.1201181086,0.2058680467
16.28916692,-0.1739678219,0.04590999842,0.2408415502,0.3006279816
16.29915492,-0.1735278189,0.02319005728,0.3343730271,0.3774321183
16.30914292,-0.145152597,0.003794842958,0.4395983505,0.4629582994
16.31912992,-0.1139566782,-0.008427007198,0.5125131297,0.5250969883
16.32911792,-0.09126611933,-0.02739946783,0.6190512262,0.6263422834
16.33910592,-0.05413936973,-0.01763344824,0.7125241578,0.7147955549
16.34909392,-0.02960635319,-0.03426059067,0.7627996143,0.7641423793
16.35908192,0.005645486712,0.006692723036,0.822115524,0.8221621488
16.36906892,0.01405115157,0.0487944299,0.8457248998,0.8472478606
16.37905667,0.01086880445,0.07931572616,0.8626566821,0.8663634725
16.38904467,-0.02997765139,0.07531623065,0.8963892692,0.9000471744
16.39903267,-0.08938112319,0.04020428538,0.9189863458,0.9241976376
16.40902067,-0.1806567442,-0.002552309632,0.9614055564,0.9782351545
16.41900767,-0.2519262631,-0.07658273757,0.9874520516,1.021955631
16.42899567,-0.2237439993,-0.118899622,0.9171410376,0.9514968104
16.43898367,-0.1581667449,-0.108153609,0.7553612982,0.7792846804
16.44897167,-0.2124926408,-0.08706504107,0.7867050053,0.8195353617
16.45895967,-0.2228068368,-0.08679606915,0.8521930166,0.8851041643
16.46894667,-0.1740450051,-0.08512668908,0.8452898669,0.8672099954
16.47893467,-0.1620324853,-0.02167212009,0.7083809669,0.7269991756
16.48892267,-0.1566979243,0.09069206893,0.7240170063,0.7463108711
16.49891067,-0.1748052894,0.1605744821,0.7555263358,0.7919350337
16.50889867,-0.2379055171,0.2274637055,0.7927504416,0.8583659097
16.51888567,-0.2828476551,0.306799897,0.7760098632,0.8810903929
16.52887367,-0.3602472487,0.3996449107,0.73179775,0.9083072617
16.53886167,-0.396030162,0.4795570529,0.6708909591,0.9148275986
16.54884967,-0.4594514018,0.5117617625,0.6301018059,0.9327507588
16.55883767,-0.5133136135,0.5083148289,0.573194949,0.9221861421
16.56882467,-0.5650013919,0.4427938539,0.5748233255,0.9196275471
16.57881267,-0.5690817252,0.3729073477,0.4173906255,0.7982035042
16.58880067,-0.4966399857,0.3931305277,0.3292257231,0.7138574536
16.59878867,-0.4578135967,0.3562305039,0.326678676,0.6657420061
16.60877667,-0.4946818994,0.2730526918,0.3573689568,0.6685660217
16.61876367,-0.5601566814,0.220996685,0.3344460442,0.6888172464
16.62875167,-0.5910250099,0.2163504875,0.3121139927,0.7025192099
16.63873967,-0.6216145724,0.2412999719,0.2887488113,0.7266403713
16.64872767,-0.663800333,0.2579651213,0.2793272658,0.7649840569
16.65871567,-0.6765289906,0.2979027736,0.2826249493,0.7914002777
16.66870267,-0.6872295414,0.3234913588,0.3123745593,0.8212849487
16.67869067,-0.7131881091,0.3365084302,0.3405232747,0.8589710724
16.68867867,-0.7983298548,0.3718431544,0.3420035704,0.9447562282
16.69866667,-0.8612265994,0.3619596058,0.3460399765,0.9962277235
16.70865467,-0.9174659966,0.3647820568,0.3005367981,1.032052407
16.71864167,-0.9465292896,0.367184093,0.2664277234,1.049631167
16.72862967,-0.951068337,0.3802801019,0.2491422576,1.054142211
16.73861767,-0.9541047961,0.4017738819,0.2334680651,1.061247168
16.74860567,-0.9401632798,0.3838685381,0.2354872549,1.042456855
16.75859267,-0.9002035542,0.4115761542,0.2655430397,1.024828998
16.76858067,-0.8898101284,0.4092700124,0.2797652223,1.018593436
16.77856867,-0.8903324309,0.3888515353,0.2356556547,0.9997154303
16.78855667,-0.8778509644,0.3612509233,0.2118082242,0.9726187686
16.79854467,-0.8148491161,0.367265954,0.1806361328,0.9118622568
16.80853167,-0.7556233996,0.3612140858,0.1758069174,0.8557747426
16.81851967,-0.7115242839,0.3834095317,0.1649891299,0.8249188376
16.82850767,-0.6780197382,0.4181630427,0.1870443888,0.8182644432
16.83849567,-0.6868303227,0.4340429109,0.189915664,0.8343842641
16.84848367,-0.6728240485,0.4014593017,0.1891287019,0.8059971694
16.85847067,-0.620882501,0.3146755117,0.1469153863,0.7114069781
16.86845867,-0.5492073315,0.2229291898,0.1394262725,0.6089054131
16.87844667,-0.4657079226,0.1548219913,0.1389304286,0.5100542933
16.88843467,-0.4302726263,0.03611298859,0.1545951194,0.4586265712
16.89842267,-0.3448679021,-0.02016938567,0.1507815653,0.376929376
16.90840967,-0.2599847496,-0.01384562194,0.1944380468,0.3249460344
16.91839767,-0.2286632618,-0.1122530919,0.2064517361,0.3278871197
16.92838567,-0.1751416504,-0.2096425617,0.2354059786,0.3606113921
16.93837367,-0.1977456705,-0.3170319396,0.3103479874,0.4857246898
16.94836167,-0.1715568687,-0.4305217177,0.3732242668,0.5950437479
16.95834867,-0.101753393,-0.4344656646,0.4609792793,0.6415731156
16.96833667,-0.03761776954,-0.3539126676,0.5335473186,0.6413595045
16.97832467,0.02971248016,-0.2319157755,0.5693398067,0.6154799541
16.98831267,0.08713126078,-0.08321640372,0.5648923413,0.5775986355
16.99830067,0.1808172503,0.0558765775,0.5584370153,0.5896346071
17.00828767,0.2566823883,0.1686401314,0.5520127525,0.6316988375
17.01827567,0.3520228475,0.2148009753,0.5452188727,0.6836103885
17.02826367,0.4436922055,0.1828699154,0.5528670307,0.7320970788
17.03825167,0.5358739988,0.1262530804,0.5376894131,0.7695522645
17.04823967,0.5730556391,0.0540083921,0.5463299167,0.7935906059
17.05822667,0.5697886536,-0.02649431884,0.488001017,0.7506704012
17.06821467,0.563478777,-0.1443268239,0.4021481768,0.7071504227
17.07820267,0.5328036989,-0.2802055907,0.348924481,0.69580403
17.08819067,0.4374923296,-0.3445430893,0.325162493,0.6448566707
17.09817867,0.4217584956,-0.3949215299,0.3269640201,0.6638890825
17.10816567,0.4760041384,-0.2439680564,0.3269768109,0.6269084361
17.11815367,0.2424322852,-0.1384310764,0.3428502472,0.4421344455
17.12814167,0.2184820168,-0.3285889614,0.1049369095,0.4083097503
17.13812967,0.3231105588,-0.2395691961,0.1782154586,0.4399483863
17.14811767,0.4397974482,-0.07804863453,0.2690789241,0.521456472
17.15810467,0.4558246663,-0.06136886716,0.3363300171,0.5697895617
17.16809267,0.4102201118,0.0808079356,0.2826736274,0.5046928197
17.17808067,0.3310547322,0.1667579126,0.05151755132,0.3742452341
17.18806867,0.2139810495,0.1570410097,-0.07431109428,0.2756300183
17.19805667,0.1223690674,0.1329352784,-0.07454900287,0.195457235
17.20804367,0.02233694851,0.04443416119,-0.05121386155,0.07138762893
17.21803167,0.0009332156181,-0.00716868639,-0.0763640517,0.07670547143
17.22801967,-0.04816278443,-0.01334919333,-0.1182511657,0.1283790986
17.23800767,-0.07491701201,0.03142644525,-0.1152123678,0.1409754228
17.24799567,-0.09068176322,0.1030519134,-0.1208602665,0.1828936386
17.25798267,-0.1241777574,0.06718158424,-0.1104704221,0.1792684993
17.26797067,-0.1347248919,0.05061466813,-0.1751925943,0.2267268979
17.27795867,-0.1775333078,0.06898603499,-0.2077715988,0.2818619976
17.28794667,-0.1459496456,0.08790060818,-0.2471197788,0.3001599591
17.29793367,-0.147150152,0.1228868383,-0.3060966231,0.3611779131
17.30792167,-0.1085180368,0.0160570389,-0.2870367466,0.3072850252
17.31790967,-0.1311493926,-0.01773460507,-0.252059872,0.284690812
17.32789767,-0.1632599621,-0.02765733004,-0.2030843246,0.2620343222
17.33788567,-0.09373042837,-0.09765551805,-0.2126607482,0.2520844843
17.34787267,-0.05696415961,-0.03499266207,-0.293195765,0.3007210643
17.35786067,-0.06874023266,-0.02552601993,-0.3134868459,0.3219484428
17.36784867,-0.07535511464,-0.04770977139,-0.3612235875,0.3720713585
17.37783667,-0.02150627844,-0.02933372676,-0.3593857346,0.3612216684
17.38782467,0.02109587699,-0.07052677631,-0.3560102101,0.3635413757
17.39781167,0.06050070181,-0.04419910312,-0.3033360064,0.3124526019
17.40779967,0.1430399249,-0.06909420848,-0.2491488357,0.2954819319
17.41778767,0.2899355768,-0.1097323573,-0.2341326012,0.3884866843
17.42777567,0.428183343,-0.08095762432,-0.2698712949,0.5125676814
17.43776367,0.6519389637,0.09333676457,-0.349462498,0.7455603272
17.44775067,0.6548146974,-0.280719561,-0.3235219105,0.7824654538
17.45773867,0.4491229532,-0.1273225361,-0.2818779675,0.5453234305
17.46772667,0.5722797867,-0.05785644472,-0.2547010593,0.6290660951
17.47771467,0.4979301739,-0.08266559601,-0.1554517365,0.5281413648
17.48770267,0.4294548201,-0.06727572441,-0.1412933616,0.4570790737
17.49768967,0.4661995272,-0.07722417712,-0.1087535334,0.4849050461
17.50767767,0.5002939108,-0.1316670173,-0.1237943262,0.5319353681
17.51766567,0.4478636822,-0.1776068366,-0.1918869066,0.5186006664
17.52765367,0.4788022504,-0.2527798104,-0.3499720828,0.6446934824
17.53764167,0.4566441536,-0.2777006435,-0.4921969789,0.7265668562
17.54762867,0.2981594664,-0.283823263,-0.5408516604,0.6796875978
17.55761667,0.01424856819,-0.1545869333,-0.5517057006,0.5731311558
17.56760467,-0.218275537,0.06981107712,-0.5582126284,0.6034228493
17.57759267,-0.2631610667,0.1855771762,-0.5147538558,0.6071772126
17.58758067,-0.1634535049,0.2631562793,-0.4180554539,0.5203255117
17.59756767,-0.1970618021,0.3896800858,-0.2616489402,0.5090619717
17.60755567,-0.2062590703,0.1896942008,-0.2443773615,0.3718157995
17.61754367,-0.06015469283,0.2778854156,-0.301808129,0.4146408542
17.62753167,0.171501576,0.07132667542,-0.2625164478,0.321582292
17.63751967,0.1323492412,-0.06216876626,-0.2595859694,0.297936491
17.64750667,0.1498568647,-0.1579099059,-0.2830094037,0.3570531345
17.65749467,0.1460298621,-0.2092893898,-0.2543089304,0.3602773951
17.66748267,0.129335769,-0.1902122641,-0.1638811556,0.282427831
17.67747067,0.1712757638,-0.06902404189,-0.03622583985,0.1881808096
17.68745867,0.2123774506,0.02067867815,0.02583241403,0.2149397657
17.69744567,0.3424402478,0.07208564401,-0.031861405,0.3513926757
17.70743367,0.3720818305,0.09193109393,-0.1121816828,0.3993506536
17.71742167,0.3799099366,0.04723848581,-0.179348649,0.4227634946
17.72740967,0.3655186963,0.00309668541,-0.2008525155,0.4170794167
17.73739767,0.3427471535,-0.01978814721,-0.1995708058,0.3971091645
17.74738467,0.2720237646,-0.09261931121,-0.2268983529,0.3661394923
17.75737267,0.03976033553,-0.2971730411,0.005316873193,0.299868254
17.76736067,0.005801168829,-0.2293201965,0.009330986738,0.2295832603
17.77734867,0.2071864753,0.003010731339,-0.488778185,0.5308855001
17.78733667,0.1653599165,-0.007893156409,-0.3774268068,0.4121373538
17.79732367,0.1146858625,-0.2136601835,-0.3371663151,0.4153127077
17.80731167,-0.003255108409,-0.2300785804,-0.2647772006,0.3507901293
17.81729967,-0.1748255353,-0.1393525976,-0.2347500671,0.3241769706
17.82728767,-0.3354145258,0.04295832396,-0.2096443889,0.3978681836
17.83727567,-0.2995028642,0.2645771527,-0.1897339618,0.4423822009
17.84726267,-0.1836163124,0.3740955019,-0.0944436425,0.427296146
17.85725067,-0.02833312199,0.3152742666,-0.006876325607,0.316619508
17.86723867,0.1882968807,0.2106055981,0.06489758871,0.2898657107
17.87722667,0.3707801306,0.1305747575,0.1228289509,0.41184296
17.88721467,0.4470276766,0.05332309842,0.1713677844,0.4817094705
17.89720167,0.5699085215,-0.0276590842,0.2018025418,0.6052148492
17.90718967,0.5511187863,-0.0593580097,0.292903989,0.6269354327
17.91717767,0.4825217374,-0.01515422881,0.3619881841,0.6034006323
17.92716567,0.3855781178,0.004540947676,0.387747581,0.5468448516
17.93715367,0.295464101,0.008266208768,0.410322365,0.5056993261
17.94714067,0.2922543633,0.0008197796345,0.3333994657,0.44336045
17.95712867,0.1880838776,0.0381466502,0.2754553127,0.3357176511
17.96711667,0.1560778453,0.05206594706,0.2583246519,0.3062723991
17.97710467,0.1071508116,0.01561089635,0.2446211904,0.2675154637
17.98709267,0.07345931942,-0.001200433373,0.2566359761,0.2669451945
17.99707967,0.01793461639,-0.01607633471,0.2721948322,0.2732583497
18.00706767,-0.008386332504,-0.06252427697,0.236530325,0.2447983056
18.01705567,-0.04234389123,-0.06745932698,0.2130145779,0.227418065
18.02704367,-0.02242568001,-0.0467391336,0.2044712842,0.2109406641
18.03703167,-0.008808574565,0.01043143272,0.1017381171,0.1026501352
18.04701867,0.03897286177,0.01348601818,0.03566216826,0.05452106828
18.05700667,0.1222302325,0.001634881496,-0.02816143312,0.1254430903
18.06699467,0.1761741956,-0.01438882828,-0.05638250783,0.185535368
18.07698267,0.195891555,-0.03591359854,-0.1185634802,0.2317770194
18.08697067,0.1867110975,-0.05421012104,-0.1352659786,0.2368473266
18.09695767,0.1807798281,-0.06791774869,-0.1105264091,0.2225089975
18.10694567,0.219728424,-0.1256853157,-0.08022087514,0.2655424028
