Time (ms),Linear Acceleration x (m/s^2),Linear Acceleration y (m/s^2),Linear Acceleration z (m/s^2),Absolute acceleration (m/s^2)
12.35891668,-0.09371516165,0.1943016605,-0.09933016062,0.2374913632
22.39591668,-0.1088102422,0.1454722935,0.1301911801,0.2234985467
32.43191667,-0.009933838098,0.04266932532,0.3226160306,0.3255771117
42.46791668,0.002773644732,-0.03937018007,0.3169249356,0.3193730092
52.50491668,-0.01551146285,-0.08547562167,0.1338334107,0.1595558498
62.54091667,-0.08300573037,-0.08353843912,-0.1114362359,0.1621316032
72.57791667000001,-0.0719431501,-0.03258682519,-0.2669867903,0.2784235339
82.61391667,-0.04957884758,-0.002847155482,-0.3901694977,0.3933171816
92.65091667,-0.0553390722,0.02383895203,-0.4964519978,0.5000952855
102.68691670000001,0.04754264153,0.04977413088,-0.4022603703,0.4081068149
112.72391669999999,0.1035519417,0.08617070943,-0.266092751,0.2982511491
122.7599167,0.09996586259,0.1389488474,-0.07857137561,0.1883438795
132.7969167,0.1375289607,0.08859321088,0.14536412,0.2188462918
142.8329167,0.2237566987,-0.04276814327,0.1950525892,0.2999027957
152.8699167,0.2710286964,-0.09161929116,0.2037661099,0.3512424751
162.90591669999998,0.2273994227,-0.1072499219,0.2324695069,0.3424253419
172.9429167,0.1815789598,-0.1394118007,0.165639925,0.2825653085
182.97891669999998,0.1481128869,-0.1378828999,-0.01744633734,0.2031095666
193.01591670000002,0.1125273081,-0.05368957266,-0.1436467928,0.1902087441
203.0519167,0.07867900092,0.05174537346,-0.2980466151,0.3125695981
213.0889167,0.02207880308,0.09325446501,-0.418382898,0.429218031
223.1249167,-0.0292752272,0.1369089,-0.3977194226,0.4216418207
233.1619167,0.02949540228,0.1485631317,-0.2282238436,0.2739107622
243.19791669999998,0.07444363422,0.09422422573,-0.06206059277,0.1351723957
253.23491669999999,0.06751775346,0.02155561432,0.02350697637,0.07467174485
263.27091670000004,0.01627461014,-0.02469630003,0.07047415137,0.07642889625
273.3069167,-0.02743650628,-0.05775689587,0.04930840015,0.08074614061
283.34391669999997,-0.08026920604,-0.08586168408,-0.07410234869,0.1389479482
293.3799167,-0.1486178397,-0.09190828979,-0.1431667364,0.2259006649
303.4169167,-0.1925969596,-0.06734779134,-0.1542705989,0.2557904055
313.45291669999995,-0.1795603365,-0.04544075936,-0.09929156899,0.2101561151
323.4899167,-0.1807481253,0.005183118135,-0.005795760155,0.180915285
333.5259167,-0.2553200236,-0.01207552359,0.06448835671,0.263615024
343.5629167,-0.1728808793,-0.07568928301,0.1397554708,0.2348366615
353.59891669999996,-0.07056869354,-0.1087748757,0.2225730944,0.2575862893
363.6359167,0.07160604442,-0.09845103174,0.1618474209,0.2025206629
373.6719167,0.1900844293,-0.08378738433,0.03090838194,0.2100184376
383.70891670000003,0.2436146836,-0.03129064366,-0.1284949028,0.277196967
393.7449167,0.1768949381,0.09785213068,-0.2660664386,0.3341529714
403.7819167,0.03891267199,0.2116608743,-0.3757093334,0.4329803979
413.8179167,-0.09343709914,0.2464382127,-0.2829473501,0.3866800837
423.8549167,-0.1833049117,0.2157346295,-0.1668888903,0.3286244402
433.8909167,-0.4043353278,0.1349728869,-0.2083012104,0.4744408623
443.92791669999997,-0.4927928102,0.2138063639,-0.4566488314,0.7050433109
453.9639167,-0.8954905522,0.04178120635,0.002820112109,0.896469158
464.0009167,-1.097721914,-0.001478980109,-0.07244758666,1.100111013
474.03691669999995,-0.7283854611,0.1602749585,-0.3910091579,0.8420935838
484.0739167,-0.4360007049,0.2065193445,-0.5466626233,0.7291000467
494.1099167,-0.4316508881,0.1566904691,-0.6617837745,0.8055011834
504.1459167,-0.6092675187,0.0566876594,-0.7446189398,0.963783049
514.1829167000001,-0.691011959,-0.01174617916,-0.3539693856,0.7764855608
524.2189167,-0.5173210393,-0.0590598017,0.3933837122,0.652579392
534.2559167000001,-0.1838883176,0.112823634,0.0001701539755,0.2157408508
544.2919167,0.03956504767,0.02612207048,-0.1514329451,0.158681103
554.3289166999999,0.6115085372,-0.08620476946,-0.8002820939,1.010853789
564.3649167,1.208143951,-0.2588696124,-1.14644837,1.685517472
574.4019167,1.562180141,-0.3041693808,-1.312937896,2.063184849
584.4379167,1.518990852,-0.2194006144,-1.198019643,1.946977376
594.4749167,1.490056782,-0.3381259894,-0.6700026208,1.668383023
604.5109167,1.735464131,-0.3631945012,-0.2242512453,1.787186229
614.5479167,1.957103571,-0.2340412019,0.07229263544,1.972373164
624.5839167,1.94174966,-0.2775731377,0.1762473589,1.969391205
634.6209167,1.808825199,-0.4943721431,0.201903187,1.88600565
644.6569167,1.526188189,-0.7774430888,0.2620821458,1.732730561
654.6939167,1.248321193,-1.030564157,0.5546329629,1.711135882
664.7299167,0.8414558476,-0.9768173551,0.962450527,1.608891266
674.7669167,0.5306682958,-0.6677132166,1.288688908,1.545370143
684.8029167000001,0.3709957832,-0.3262275268,1.55409695,1.630729775
694.8389167,0.3476398478,-0.1010326962,1.682650325,1.721154608
704.8759167000001,0.2740077249,-0.05775265207,1.603048085,1.627322576
714.9119167,0.1423102563,-0.0964087455,1.435323628,1.445579735
724.9489166999999,-0.05420544326,-0.09977226494,1.25417981,1.259309228
734.9846666999999,-0.2847296546,-0.1048840196,1.023401903,1.067437628
745.0216667000001,-0.4375865429,-0.1759730697,0.7096180916,0.8520600564
755.0576666999999,-0.5096789843,-0.3108818747,0.42823838,0.7347164876
765.0946667000001,-0.5309577329,-0.4889384718,0.1910992867,0.7466564677
775.1306667,-0.5427254372,-0.6401146511,0.0007788491249,0.839224805
785.1676667,-0.4832505928,-0.7631360485,-0.1339684814,0.9131567872
795.2036667,-0.2643615732,-0.8305044512,-0.2402913272,0.9040821903
805.2406667,-0.1310155827,-0.4180015864,-0.4238944834,0.6095711134
815.2766667,-0.1578627993,-0.00253644906,-0.7166025907,0.73378905
825.3136667,0.04147843022,0.2020390983,-1.004156962,1.025120218
835.3496667,0.376775025,0.2064307044,-1.234570003,1.307186348
845.3866667,0.7986505745,0.1518182766,-1.408189039,1.626003659
855.4226667,1.095782831,0.3024638942,-1.408438715,1.80995139
865.4596667,1.41884632,0.5455460975,-1.099389394,1.876007053
875.4956667,1.913274304,0.7253777996,-0.6810328084,2.156524334
885.5316667000001,2.41752561,0.8129866317,-0.4511740834,2.590161268
895.5686667,2.780547802,0.8502238206,-0.400131399,2.935035223
905.6046666999999,2.85837278,0.7321336725,-0.2724673855,2.963199814
915.6416667,2.632526707,0.4902778862,-0.2426705593,2.688765194
925.6776666999999,2.440049962,0.2655529434,-0.1280803353,2.457797135
935.7146667000001,2.321312747,-0.02186379456,0.03268885911,2.32164585
945.7506667,2.184582918,-0.4263882478,0.1911074728,2.233994523
955.7876667,1.979216132,-0.6729811925,0.4091875666,2.130172446
965.8236667,1.774391676,-0.9320806736,0.4022206092,2.044265546
975.8606667,1.632399207,-1.219464452,0.288040275,2.057860035
985.8966667,1.383146291,-1.422274396,0.1646499914,1.990745524
995.9336667,1.185405079,-1.658868822,0.09498743355,2.041091272
1005.969667,1.169003932,-1.826950544,0.0006595659256,2.168944194
1016.0066670000001,1.162705457,-1.911553322,-0.05373591185,2.238036557
1026.042667,1.131713898,-1.966119539,-0.05220978856,2.269169066
1036.0796670000002,1.16624083,-1.948633148,0.01996707201,2.271054271
1046.115667,1.170289076,-1.983549065,0.1160005724,2.305970414
1056.152667,1.13960435,-2.021107632,0.09742981553,2.322297721
1066.1886670000001,0.9517492452,-2.005604909,-0.002513718009,2.219973873
1076.2256670000002,0.7273980126,-1.984199861,-0.1786102188,2.120862694
1086.261667,0.5136073265,-1.958198901,-0.3534232557,2.055053142
1096.2986669999998,0.3341940292,-1.95592755,-0.5054555404,2.047638526
1106.334667,0.1747039863,-1.877254871,-0.6328809875,1.988754806
1116.370667,0.06371129829,-1.742009504,-0.7205313349,1.886218875
1126.407667,-0.1105688563,-1.542807877,-0.7724399918,1.728914445
1136.443667,-0.2547704767,-1.352975389,-0.8025104678,1.593572543
1146.480667,-0.3472346357,-1.118302432,-0.7171153915,1.37310841
1156.516667,-0.4590691036,-0.8727233217,-0.4464273137,1.08244528
1166.5536670000001,-0.5934839468,-0.7126767701,-0.1312968886,0.93668044
1176.589667,-0.7226710504,-0.6696722531,0.2019183898,1.00572631
1186.626667,-0.9531739924,-0.663657734,0.562117399,1.2903326
1196.662667,-1.103680592,-0.621301454,0.8124402094,1.504721051
1206.699667,-1.131166234,-0.6572635844,0.8141709852,1.540911049
1216.735667,-1.283038743,-0.5955685157,0.7224679327,1.588348258
1226.7726670000002,-1.525676558,-0.5171346228,0.634373197,1.731342407
1236.808667,-1.650492393,-0.4840442061,0.5722558862,1.812705363
1246.845667,-1.518669547,-0.430799972,0.7006876391,1.727110007
1256.881667,-1.311224808,-0.240786294,1.088754478,1.72124224
1266.9186670000001,-0.969299663,0.01471941523,1.22557874,1.562626553
1276.954667,-0.771723781,0.09622368112,1.079170892,1.330197882
1286.991667,-0.7402608638,-0.03449652582,0.8482877344,1.126396128
1297.027667,-0.9602008107,-0.07277539618,0.5736720818,1.120884255
1307.0646669999999,-1.062002078,-0.1610502262,0.3846573275,1.140941212
1317.1006670000002,-1.03358366,-0.1436573178,0.1204684299,1.050450022
1327.136667,-0.9875996207,-0.04792882271,-0.08832862437,0.9926994151
1337.173667,-0.8272169273,0.2489946154,-0.1133541226,0.8712837198
1347.209667,-0.5995735295,0.664490743,-0.05728341758,0.8968376413
1357.2466670000001,-0.3741744028,0.8678639931,-0.09004536688,0.9493695605
1367.282667,-0.1962937703,1.04673032,-0.1508248347,1.075603894
1377.319667,-0.1130694729,1.172703903,-0.2926373559,1.213942244
1387.355667,-0.01336501736,1.299234215,-0.4292996496,1.368388234
1397.392667,0.08722368333,1.444697591,-0.4966660058,1.530175226
1407.4286670000001,0.1345502063,1.508212094,-0.5025050354,1.595405525
1417.4656670000002,0.1718378274,1.538051898,-0.5042077446,1.627684653
1427.501667,0.1566160267,1.502393676,-0.5063220978,1.593134459
1437.538667,0.1373691855,1.414548763,-0.3843936181,1.472269319
1447.574667,0.1447548036,1.314236708,-0.2086742628,1.338550345
1457.6116670000001,0.1978539171,1.180556422,-0.07018646836,1.199077052
1467.647667,0.254749445,1.033411971,0.117792744,1.070846726
1477.684667,0.4035116379,0.8424101863,0.3378521204,0.9932877826
1487.720667,0.5715342667,0.6932219142,0.610533514,1.086259275
1497.7576669999999,0.6390035339,0.4836221834,0.7203793073,1.077572401
1507.7936670000001,0.6151624623,0.2740500075,0.733154304,0.9955116751
1517.829667,0.5024294601,0.04986140057,0.6884991181,0.853787185
1527.866667,0.331485672,-0.1581089671,0.5967165434,0.7006795483
1537.902667,0.0905246193,-0.3286441079,0.4284313381,0.5474989204
1547.939667,-0.09101468906,-0.441749395,0.1344602323,0.4706439797
1557.975667,-0.3049321136,-0.4716566971,-0.2693011183,0.6228697505
1568.0126670000002,-0.5196536033,-0.37932273,-0.6496519715,0.9143157468
1578.048667,-0.7337481619,-0.1736214657,-0.9438692451,1.208064539
1588.085667,-0.9590235469,0.07891245101,-1.221052995,1.554645861
1598.1216670000001,-1.146313007,0.2108218903,-1.496633438,1.896942547
1608.1586670000002,-1.359501028,0.1504062289,-1.438726707,1.985144734
1618.194667,-1.654641869,-0.1269256381,-0.9294254529,1.902046662
1628.231667,-1.863164982,-0.5362011505,-0.2173024142,1.950926898
1638.267667,-1.9449782,-0.8573653174,0.4398725849,2.170599773
1648.3046669999999,-1.993953455,-1.029246853,0.9956007314,2.454876836
1658.340667,-2.012259479,-1.010733325,1.318841829,2.609619481
1668.377667,-1.972088377,-0.7918250466,1.376524612,2.531983309
1678.413667,-1.846867476,-0.5052015885,1.176826994,2.247458541
1688.4506669999998,-1.693553482,-0.1850812775,0.8966944939,1.925211544
1698.4866670000001,-1.561212426,0.08274570286,0.6001640618,1.674642646
1708.523667,-1.428638214,0.3183630948,0.3678454131,1.509195963
1718.559667,-1.288162658,0.5631999013,0.2577090132,1.4293254
1728.595667,-1.172765153,0.7184005364,0.1429351866,1.382717579
1738.6327079999999,-1.090920141,0.7520144981,-0.02619552612,1.325261772
1748.6687080000002,-1.040003829,0.7173105423,-0.1056065619,1.267791436
1758.705708,-1.006848435,0.6643735794,-0.07706922591,1.208749639
1768.741708,-1.004673856,0.5928033675,-0.01108339727,1.166579715
1778.7787079999998,-0.9684600028,0.4932796274,0.1100586319,1.092406733
1788.814708,-0.92888824,0.3522361978,0.1937463212,1.012146896
1798.851708,-0.9085298431,0.2274566523,0.147256279,0.9480756384
1808.8877080000002,-0.9517542884,0.1354511891,-0.01637980521,0.9614840343
1818.924708,-0.9594754636,0.09408811351,-0.2477938896,0.995413256
1828.960708,-1.047663316,0.06295959304,-0.4651857662,1.148024447
1838.9977079999999,-1.175027587,0.02224280834,-0.7328999501,1.38503679
1849.0337080000002,-1.326789365,-0.01336044009,-0.992560764,1.657023051
1859.070708,-1.486787311,-0.0731639528,-1.069831134,1.833147056
1869.1067079999998,-1.58620138,-0.08860411959,-0.9561676937,1.854222793
1879.143708,-1.505196978,-0.09416030835,-0.666234675,1.648742778
1889.179708,-1.342457856,-0.03947636185,-0.2019447023,1.358135907
1899.215708,-1.259248469,-0.02170720339,0.2600718731,1.2860075
1909.252708,-1.163553084,0.007062614243,0.5651164359,1.293546383
1919.288708,-1.047041977,0.05711894637,0.8004715437,1.319209675
1929.3257079999998,-0.8830274313,0.07430140983,1.016930205,1.348853285
1939.3617080000001,-0.7623100562,0.08017326602,1.19108543,1.41641409
1949.398708,-0.6994872788,0.03997152966,1.333033606,1.505941158
1959.434708,-0.6588483261,-0.04355014441,1.433720321,1.578458644
1969.471708,-0.5930456614,-0.1433846822,1.450831028,1.573903744
1979.507708,-0.5675230037,-0.2615300773,1.354339106,1.491547772
1989.544708,-0.5899858135,-0.3680546338,1.121125833,1.319268967
1999.5807080000002,-0.6424683747,-0.4345892236,0.7923100001,1.10877795
2009.617708,-0.7007779786,-0.4016542333,0.342708233,0.8774194159
2019.6537079999998,-0.6845254965,-0.3252027291,-0.1801088601,0.7789551797
2029.6907079999999,-0.6646068102,-0.2317699971,-0.5458241326,0.8906983369
2039.726708,-0.6615275203,-0.1275500842,-0.7418093526,1.002082232
2049.763708,-0.6299864696,-0.01436211381,-0.8496618301,1.057834792
2059.799708,-0.5294761947,0.07318364147,-0.9056553519,1.051623746
2069.836708,-0.38444215,0.1775785141,-0.9116697979,1.005222222
2079.872708,-0.2326618803,0.243683699,-0.9514074755,1.009301481
2089.909708,-0.2682225993,0.3809333455,-1.002594586,1.105553925
2099.9457079999997,0.048280752,0.2500864733,-0.9545468456,0.9879443079
2109.981708,0.2185170271,0.1229815632,-0.6836915374,0.7282226818
2120.018708,0.1601159142,0.007330983169,-0.3356389493,0.371946708
2130.0547079999997,0.007300248742,-0.2659150688,-0.1564609659,0.3086165117
2140.091708,-0.2155245683,-0.4937974349,-0.1086646557,0.5496314708
2150.127708,-0.4144190705,-0.6577198134,-0.1759012038,0.7970443855
2160.164708,-0.5826075044,-0.7348310662,-0.323610642,0.9920342976
2170.200708,-0.7255739737,-0.6995590534,-0.5553252733,1.150750459
2180.237708,-0.7922399797,-0.5987374143,-0.7770598769,1.260933277
2190.2737079999997,-0.7952192822,-0.4205718762,-0.9023481667,1.274161145
2200.310708,-0.7924259211,-0.282923742,-0.9220994765,1.248299695
2210.346708,-0.7283101782,-0.2230495145,-0.9265644103,1.199461716
2220.383708,-0.5896073525,-0.1677958848,-0.8407360554,1.040494788
2230.419708,-0.4739083502,-0.09156708648,-0.6577018332,0.8158096329
2240.456708,-0.3927220997,-0.04643462157,-0.3950630325,0.5589826664
2250.4927079999998,-0.3275507882,0.01067326991,-0.09494650304,0.3412012251
2260.529708,-0.2220696491,0.04851361737,0.2282197505,0.3221067442
2270.565708,-0.1537975591,0.041505702,0.4730701518,0.4991710939
2280.6017079999997,-0.1208302264,0.01772928776,0.6041577101,0.6163771653
2290.638708,-0.09434321657,0.01607722093,0.7339863628,0.7401993653
2300.674708,-0.01897816166,0.02558426825,0.7937291193,0.794368076
2310.711708,0.02463475809,0.009359045379,0.8524842811,0.852891501
2320.747708,0.007001163661,0.002826912923,0.8889147735,0.8889468388
2330.784708,0.06083121568,0.005189065849,0.9281314641,0.9301372898
2340.8207079999997,0.1410230009,0.02111483933,1.012536607,1.022528094
2350.857708,0.1788069776,0.01949360286,1.048653104,1.063966761
2360.893708,0.1910745822,0.0005265006563,0.9503292489,0.9693479533
2370.930708,0.2102538881,-0.01193638498,0.7972795486,0.8246234616
2380.966708,0.2345158862,0.02253879394,0.6349070477,0.6772094634
2391.0037079999997,0.3573515613,0.08480500085,0.584090066,0.6899661091
2401.039708,0.4921094169,0.1845574949,0.5298834532,0.7463307719
2411.076708,0.5960487914,0.2420250998,0.4693396282,0.7963227972
2421.112708,0.6947215788,0.2288288842,0.4772479874,0.8733649705
2431.149708,0.7183915463,0.1801821513,0.421354453,0.8521100847
2441.185708,0.6990548041,0.0965828098,0.3217828023,0.7755965641
2451.222708,0.6870697662,-0.04536220567,0.1967319095,0.7161187315
2461.258708,0.6297661757,-0.1335618441,0.0684141773,0.6473984105
2471.294708,0.6065135533,-0.2275774156,-0.07448651075,0.6520723968
2481.3317079999997,0.58393453,-0.3204312915,-0.1829821819,0.6907519286
2491.3677079999998,0.5187050387,-0.3583442358,-0.2866574085,0.6925590072
2501.404708,0.5021123949,-0.4353571823,-0.4028690654,0.7771462006
2511.4407079999996,0.4886930349,-0.4475501253,-0.5226475239,0.8439682644
2521.477708,0.4263514835,-0.4692977475,-0.5662192208,0.8500706849
2531.513708,0.3964324504,-0.5349754279,-0.5453651261,0.8606860734
2541.5507079999998,0.3078181896,-0.6147785926,-0.5312633961,0.8688760279
2551.586708,0.2655761495,-0.6393951512,-0.5252296543,0.8690356957
2561.623708,0.2620692819,-0.6401870835,-0.5892590046,0.9087056646
2571.6597079999997,0.2153503212,-0.6415924618,-0.633780874,0.9271973059
2581.696708,0.1615448275,-0.6229628672,-0.663777675,0.9245432749
2591.732708,0.1433140862,-0.6424957104,-0.6732373005,0.9415880883
2601.769708,0.1547284359,-0.670688353,-0.6604938787,0.9539475455
2611.805708,0.2180795091,-0.6337177972,-0.6368506622,0.9245191641
2621.842708,0.2727138457,-0.5542260698,-0.5921808583,0.8556971117
2631.8787079999997,0.3018742025,-0.4677955247,-0.5414895916,0.7766412717
2641.915708,0.259975394,-0.3965801657,-0.5047152829,0.6925319849
2651.951708,0.2369230387,-0.2799027415,-0.5269762176,0.6420140223
2661.9877079999997,0.1978797179,-0.2089112212,-0.4687525678,0.5500265911
2672.024708,0.1884867507,-0.1613165668,-0.3624618816,0.4392367307
2682.060708,0.2081930369,-0.1043460849,-0.2341289467,0.3302253923
2692.097708,0.2665605283,-0.016698917,-0.05728283286,0.2731569
2702.133708,0.3109125361,0.05419056941,0.1196726239,0.3375274208
2712.170708,0.312161209,0.1118620594,0.1906782871,0.3825126794
2722.2067079999997,0.3006807858,0.1627637893,0.2462882316,0.4213773595
2732.243708,0.2733143547,0.1913370125,0.296589489,0.4464033085
2742.280417,0.2461397123,0.2097957587,0.329028672,0.4613663245
2752.317417,0.2052682596,0.248005906,0.3236129808,0.4564727256
2762.353417,0.2058792937,0.2602240286,0.3031997663,0.4494807303
2772.390417,0.2004223797,0.2428793049,0.2782420957,0.4202120308
2782.426417,0.1523845795,0.1526792791,0.2883998787,0.3601479035
2792.463417,0.1349806345,0.05569359619,0.3518316436,0.3809291978
2802.499417,0.07719844937,-0.01277967453,0.4082830024,0.4157137605
2812.535417,0.003769992292,-0.07195015306,0.4377740192,0.4436633062
2822.572417,0.006777800024,-0.05619324077,0.3880533904,0.3921594735
2832.608417,0.0024578771,-0.01414978679,0.3435823917,0.3438824182
2842.6454169999997,-0.04675813705,-0.02511240251,0.3398992306,0.3440180854
2852.681417,-0.08024572581,-0.07616122641,0.3677313924,0.3840133928
2862.718417,-0.1194922373,-0.1218384691,0.3948805994,0.4301786781
2872.754417,-0.1292047548,-0.160866514,0.4410899752,0.4869622883
2882.791417,-0.1413663787,-0.2233955783,0.4629532993,0.5331189312
2892.827417,-0.1005112982,-0.2037283954,0.4059944022,0.4652303029
2902.864417,-0.0366377762,-0.1508853899,0.3201303792,0.3557979584
2912.900417,0.01056036383,-0.1045728838,0.2107558715,0.2355101839
2922.937417,0.02170398742,-0.08352341909,0.08524948061,0.1213041572
2932.9734169999997,0.01368482351,-0.08845576476,-0.07817201078,0.1188383776
2943.010417,0.04160352409,-0.1038889058,-0.1951654404,0.2249740143
2953.046417,0.03129985303,-0.1029617932,-0.3301928526,0.3472868146
2963.083417,0.01914670765,-0.1203898214,-0.443490842,0.4599395965
2973.119417,0.01207216144,-0.1150042434,-0.5090352058,0.5220043619
2983.156417,0.01018614203,-0.1044815576,-0.5721383572,0.5816893098
2993.1924169999998,-0.09850248724,-0.09473176405,-0.5811892623,0.5970408744
3003.228417,-0.1357033503,-0.08060474485,-0.6019825459,0.6223307077
3013.265417,-0.1679045516,-0.06965356775,-0.6490853763,0.6740588874
3023.3014169999997,-0.2135011393,-0.04992557377,-0.6244183123,0.6617956846
3033.338417,-0.2251949859,0.01405634098,-0.5805706269,0.6228744778
3043.374417,-0.2257156804,0.06898866624,-0.5257260829,0.5762767727
3053.411417,-0.2061055809,0.0579542394,-0.419260565,0.4707628126
3063.447417,-0.2198786974,0.03405067563,-0.2963579392,0.3705861819
3073.484417,-0.2569406891,-0.02780493569,-0.1493279475,0.2984802641
3083.5204169999997,-0.2390827078,-0.03966648772,-0.00298851192,0.2423693516
3093.557417,-0.1910270736,-0.01677927967,0.1389602494,0.2368181538
3103.593417,-0.1462131357,-0.01377658825,0.2492323047,0.2892832818
3113.630417,-0.1394970238,-0.007733600512,0.267917667,0.3021574168
3123.666417,-0.1326247913,-0.005238959044,0.2953036863,0.3237607899
3133.703417,-0.08199258149,-0.01259844739,0.3157473063,0.326462656
3143.739417,-0.03501341969,0.002217446901,0.3431233853,0.3449123282
3153.776417,-0.005794883072,-0.01610297609,0.3961950535,0.3965645053
3163.812417,0.04337464571,-0.04192132026,0.4845488209,0.4882891733
3173.8484169999997,0.07694058716,-0.07300204888,0.4994539583,0.5105912353
3183.885417,0.1335050896,-0.09314621843,0.4366080844,0.465968289
3193.921417,0.1816367376,-0.07747509576,0.3106397635,0.368091507
3203.958417,0.2072267845,-0.0591469983,0.1957560092,0.2911386659
3213.994417,0.2308185455,-0.04940100543,0.1368839031,0.2728641846
3224.031417,0.2466074896,-0.06718845472,0.09690765917,0.2733507578
3234.0674169999998,0.2552552292,-0.09923448555,0.07109921873,0.2829448958
3244.104417,0.2539121237,-0.1066200306,0.04810328901,0.2795588022
3254.140417,0.231679548,-0.1228674694,0.004961947203,0.2622907717
3264.177417,0.2038298446,-0.1190083802,-0.0666436404,0.2452569569
3274.213417,0.1730240813,-0.1272354126,-0.1716023308,0.2749064256
3284.250417,0.1583452311,-0.1514888591,-0.254263249,0.335666332
3294.286417,0.1424229705,-0.1356087716,-0.3303776246,0.384478109
3304.323417,0.1769721213,-0.1125547352,-0.4636023402,0.508836742
3314.359417,0.2145659173,-0.09438721687,-0.5534986031,0.6010891641
3324.396417,0.2523786914,-0.07607205637,-0.5621916586,0.6209198198
3334.432417,0.2421370009,-0.1243408947,-0.4969074959,0.5665757184
3344.468417,0.1996911854,-0.1376921345,-0.4050190866,0.4720976106
3354.505417,0.1471226701,-0.1301217444,-0.3090423042,0.3661746772
3364.541417,0.08873208225,-0.1560053216,-0.2193536174,0.283420275
3374.5784169999997,0.05411948919,-0.1685666757,-0.1314886773,0.2205287181
3384.614417,0.04724053234,-0.2004711308,-0.02504596353,0.207479258
3394.651417,0.03816799253,-0.2151315623,0.1085325086,0.243962477
3404.687417,0.05613122374,-0.1902195,0.2021943784,0.2832255975
3414.724417,0.07997763097,-0.1246028499,0.2417016757,0.2834466293
3424.760417,0.08625373989,-0.1085966087,0.3006234831,0.3310700978
3434.7974169999998,0.07104776323,-0.09233550198,0.3117355317,0.3327952393
3444.833417,0.02587539107,-0.06153273538,0.2989611197,0.3063226476
3454.870417,-0.0004522821307,-0.04607233174,0.3000177115,0.3035349923
3464.9064169999997,-0.02026177168,-0.02918162607,0.313013733,0.3150233384
3474.943417,-0.01156666964,-0.02001713879,0.3358512032,0.336645963
3484.979417,0.01327376425,-0.001563984007,0.3808034277,0.3810379107
3495.016417,0.01352285564,0.01606858715,0.3774377704,0.37802161
3505.052417,0.0316772908,0.03601877533,0.3164396167,0.3200544234
3515.088417,0.03319259673,0.04774456233,0.2541544908,0.2607216848
3525.1254169999997,0.01149153292,0.02472217396,0.2093724203,0.2111398863
3535.161417,4.268467426e-05,0.01637922049,0.1832757121,0.1840061612
3545.198417,-0.01511154413,0.03136687674,0.1458687347,0.1499664212
3555.2344169999997,-0.03766864032,0.03958038747,0.04398100197,0.07014172845
3565.271417,-0.04302439749,0.07225806378,-0.02160604656,0.08682826618
3575.307417,-0.05098304272,0.1037189345,-0.02762166202,0.1188269508
3585.344417,-0.06776279747,0.1111694567,-0.02071610034,0.1318317171
3595.380417,-0.07507561773,0.1054584812,-0.01862104297,0.1307844902
3605.417417,-0.08667356998,0.06822670095,0.05533571005,0.1234067715
3615.4534169999997,-0.07433652967,0.01944001861,0.1622719288,0.1795439023
3625.490417,-0.08866893232,-0.03647025347,0.1995660549,0.2214020534
3635.526417,-0.08079390228,-0.07876908459,0.1781494582,0.2108778148
3645.563417,-0.1249792644,-0.09322720237,0.1061743265,0.1886375239
3655.599417,-0.1567492336,-0.07596666031,-0.01393683851,0.1747440734
3665.635417,-0.1707591623,-0.03989928,-0.1503775227,0.2310065873
3675.6724169999998,-0.1914948508,-0.02332103491,-0.2784666288,0.3387592241
3685.708417,-0.1929095846,-0.01644522093,-0.3937403923,0.4387665093
3695.745417,-0.1581914493,0.01708476014,-0.4439954567,0.4716443461
3705.7814169999997,-0.1819545338,0.001558794603,-0.4465740788,0.4822222413
3715.818417,-0.1678370163,-0.0538167496,-0.4022013134,0.4391257258
3725.854417,-0.1825866178,-0.07461061791,-0.2488493121,0.3175383401
3735.890792,-0.1913311288,-0.09451432072,-0.1140563732,0.2419698616
3745.926792,-0.1657109687,-0.1048868427,-0.0449715203,0.2012058959
3755.963792,-0.1807038143,-0.09305156663,-0.0156068033,0.2038529737
3765.999792,-0.1996996638,-0.1020653419,-0.007111383677,0.2243832916
3776.0367920000003,-0.1986959893,-0.109326999,0.007052326798,0.2268969462
3786.072792,-0.1993897614,-0.09777465507,-0.02777544379,0.2238026707
3796.109792,-0.1766879466,-0.05219692469,-0.107254892,0.2131824601
3806.1457920000003,-0.1555423683,-0.006912285984,-0.1333574474,0.2050010166
3816.182792,-0.1270380691,-0.009963363111,-0.1367774838,0.1869385452
3826.218792,-0.09641737014,-0.001296912432,-0.1367172575,0.1673009257
3836.254792,-0.03895239651,-0.00366459623,-0.08917530119,0.0973804539
3846.291792,-0.01474404663,-0.02387184262,-0.05087720811,0.05810113671
3856.327792,0.004513465762,-0.0343311958,-0.02198903918,0.04101853511
3866.3647920000003,-0.01849269658,-0.0184552744,-0.02693929195,0.03752735577
3876.400792,-0.05232234746,-0.0345779483,-0.07745280325,0.09966041985
3886.437792,-0.08662825406,-0.06104142308,-0.1306747448,0.1682450554
3896.4737920000002,-0.136169081,-0.08271149665,-0.1905069637,0.2483467607
3906.510792,-0.1092514238,-0.08343976736,-0.2445568711,0.2805461309
3916.546792,-0.07667629302,-0.07622181818,-0.2578306353,0.2795812154
3926.5837920000004,-0.03917137474,-0.07399622172,-0.2536317497,0.2670934329
3936.619792,-0.0103712064,-0.05580918834,-0.2636661565,0.2697073776
3946.656792,0.01687243313,-0.03661818802,-0.2728071088,0.2757703561
3956.6927920000003,0.05684458405,-0.02773334384,-0.2570091015,0.2646773949
3966.729792,0.07784076601,-0.03114577889,-0.1682583082,0.1879896345
3976.765792,0.08027291536,-0.02197763711,-0.07094485223,0.1093614627
3986.801792,0.1123416772,-0.05500695035,-0.003651001453,0.1251389102
3996.838792,0.1236627638,-0.05250521913,0.02663114369,0.1369616553
4006.8747919999996,0.1508239576,-0.05119588137,0.02523892164,0.1612634107
4016.9117920000003,0.1403945714,-0.009054121077,0.005921475291,0.1408107832
4026.9477919999995,0.1353858465,-0.003609193861,0.03188311279,0.139136216
4036.984792,0.133704772,-0.02543948114,0.06786220014,0.1520835674
4047.020792,0.1387418559,-0.05476750687,0.1027788484,0.1811415857
4057.057792,0.1326361933,-0.07673096448,0.1161526,0.1922795548
4067.0937919999997,0.1382588759,-0.07743116856,0.1323727763,0.2064791867
4077.1307920000004,0.1470054334,-0.07820402429,0.1110111433,0.2001248131
4087.1667919999995,0.1234174731,-0.07050996557,0.06933452904,0.1581480472
4097.203792,0.1153921697,-0.07998727888,0.0114529413,0.1408704634
4107.239791999999,0.1082360548,-0.09615950793,-0.08653352916,0.1686705255
4117.276792000001,0.11770679,-0.08909797177,-0.1302525759,0.1968732346
4127.312792,0.1161832979,-0.09250046656,-0.1090061331,0.1842206071
4137.349792,0.1390853798,-0.11660152,-0.0429513073,0.1865086383
4147.385792,0.1607674402,-0.1031692962,-0.006783354878,0.1911441535
4157.421792,0.1482725251,-0.09657802239,-0.03393139243,0.1801760125
4167.458791999999,0.1070809373,-0.1072051907,-0.08990327954,0.1761870589
4177.494792,0.08660164922,-0.1047050674,-0.1757731497,0.222169298
4187.531792,0.07406521887,-0.091896303,-0.2515694368,0.2778808534
4197.567792,0.0867852518,-0.00848007068,-0.299689098,0.3121172007
4207.604792,0.111430681,0.03969148457,-0.3261500877,0.346938165
4217.640792,0.116482383,0.05305047199,-0.2698846704,0.2986975618
4227.6777919999995,0.1181964943,0.045515019,-0.2013354224,0.2378612632
4237.7137920000005,0.1088734013,0.05734685987,-0.1427182549,0.1884425115
4247.750792,0.07609624922,0.03285448149,-0.07390939057,0.1110524836
4257.786792,0.009022838473,-0.01800138429,0.01455079615,0.02484325098
4267.823792,-0.06569142133,-0.02585419491,0.06399719059,0.09528610935
4277.859792,-0.1038047424,0.0135462445,0.0001526123285,0.1046849969
4287.896792,-0.1277040669,0.06749309465,-0.04945224166,0.152673412
4297.9327920000005,-0.1490174603,0.1089555547,-0.03827353477,0.1885268677
4307.969792,-0.1684290469,0.1284254672,0.02620195806,0.2134197438
4318.005792,-0.1631817555,0.1469206488,0.07313112617,0.2314349239
4328.041792,-0.1604218698,0.1346045123,0.144454878,0.2544027571
4338.078792,-0.1116952676,0.1083728796,0.1989491737,0.2525891675
4348.114791999999,-0.08446653843,0.07242741376,0.2500164163,0.2736576964
4358.151792000001,-0.03606738031,0.0114373,0.3493033075,0.3513466499
4368.187792,0.00899184823,-0.05363826334,0.4167860234,0.4203195284
4378.224792,0.0520767644,-0.08420706823,0.4020937246,0.4141040728
4388.260792,0.06775373429,-0.09061663985,0.3500827414,0.3679128562
4398.297792,0.03605890185,-0.07718193099,0.2661646718,0.2794654315
4408.333791999999,0.0037878263,-0.03602191821,0.09284559846,0.09966058084
4418.370792,-0.05229311138,0.02507797703,-0.1165209746,0.1301561061
4428.406792,-0.1165341309,0.0738607125,-0.3095071578,0.3388661819
4438.443792,-0.1686047557,0.1060655683,-0.4272051769,0.4713615721
4448.479792,-0.2086383024,0.08767432094,-0.4161919463,0.4737430357
4458.516792,-0.2224903563,0.04244523078,-0.3208425701,0.3927384766
4468.5527919999995,-0.2069996202,-0.004332202077,-0.164545911,0.2644673279
4478.5887920000005,-0.2026677105,-0.05595419928,-0.009737368226,0.2104753896
4488.625792,-0.199701418,-0.07114658117,0.09233396709,0.2312316022
4498.661792,-0.1916857624,-0.06982247919,0.1140598816,0.2337269062
4508.698791999999,-0.2185993266,-0.04984049678,0.07121148527,0.2352462887
4518.734792,-0.2632755625,0.001479930282,0.02264392734,0.2642516972
4528.771792,-0.2878245127,0.03818772689,-0.02897119939,0.291788593
4538.807792,-0.3086788997,0.059913349,-0.02847769439,0.3157265456
4548.844792,-0.3193994772,0.03801961944,0.02055413246,0.3223103937
4558.880792,-0.3238924778,-0.01585399434,0.08390403628,0.3349590626
4568.917791999999,-0.3276133534,-0.06269676983,0.1988597113,0.3883382277
4578.953792,-0.3049548081,-0.1331611271,0.3144164801,0.4578067755
4588.990792,-0.2974013749,-0.1856571369,0.3876458395,0.5226714523
4599.026792,-0.307535769,-0.1842527819,0.384530443,0.5257290162
4609.063792,-0.3064414626,-0.1382829957,0.2977647793,0.4491017933
4619.099792,-0.2711426988,-0.05533249408,0.2076433986,0.34597085
4629.135791999999,-0.230251658,0.02402898654,0.1257940739,0.2634717579
4639.172792,-0.172413632,0.05647138551,0.06036197662,0.1912042
4649.208791999999,-0.1491288498,0.01761868402,0.02398995638,0.1520702136
4659.245792,-0.0530921334,-0.05883936167,-0.05191684306,0.0947428293
4669.281792,-0.02611600399,-0.1099222456,-0.09260937095,0.1460871019
4679.318792,-0.009930618703,-0.1713348207,-0.1796937078,0.2484835339
4689.354791999999,0.0627365309,-0.1993844989,-0.2947517091,0.3613428022
4699.391792,0.03927720934,-0.2177849557,-0.3925890756,0.4506652509
4709.4277919999995,0.02760412037,-0.1976620553,-0.4272490311,0.4715654887
4719.464792,0.003763560355,-0.1394052225,-0.4591034925,0.4798166288
4729.500792,-0.01804977,-0.07664515659,-0.4693121463,0.4758720047
4739.537667,-0.02015184402,-0.006577094346,-0.4168789941,0.4174175975
4749.573667,-0.01039898068,0.02762940958,-0.3423778653,0.3436482587
4759.610667,-0.00775896281,0.1078317198,-0.2916719806,0.3110633787
4769.646667,0.01502091229,0.1765072677,-0.2188326305,0.2815460238
4779.682667,0.01065274984,0.2329994108,-0.06190096378,0.2413170856
4789.719667,0.03908717483,0.284241339,0.0817300415,0.2983299276
4799.755667,0.0974859488,0.2974906911,0.2304171342,0.3887110459
4809.792667,0.1194401971,0.2871947676,0.3865898323,0.4961839313
4819.828667000001,0.1193214986,0.2567937778,0.4316122234,0.5162071054
4829.865667,0.1286130166,0.2278354423,0.4108148468,0.4870514707
4839.901667,0.1607466826,0.2075118363,0.3725337106,0.4557214321
4849.938667,0.2086619836,0.1661671977,0.342985391,0.4345001029
4859.974667,0.2516548061,0.0895002602,0.2859095496,0.3912604102
4870.011667,0.2748512954,0.005112074465,0.220755195,0.3525652053
4880.047667000001,0.2657860646,-0.1138202919,0.12906793,0.316631997
4890.084667,0.2630010357,-0.194263946,-0.02257609963,0.3277464047
4900.120667,0.2566752255,-0.2325772418,-0.1763274658,0.3886717381
4910.157667,0.2755213863,-0.2368448322,-0.2691561073,0.452164261
4920.1936670000005,0.3048539436,-0.2028052662,-0.3481315255,0.5052340665
4930.230667,0.3280039474,-0.1455697958,-0.4586684597,0.5823692221
4940.266667000001,0.3217024031,-0.09410465017,-0.4962806743,0.5988677893
4950.302667,0.2988813052,-0.02267214015,-0.4051062101,0.5039395817
4960.339667,0.2712751383,0.01776998073,-0.3204969996,0.4202669385
4970.375667,0.1808306989,0.05661420375,-0.2913515532,0.3475494746
4980.4126670000005,0.08631835163,0.1107236065,-0.2533592695,0.2896575466
4990.448667,0.01150059611,0.1685686491,-0.1810245341,0.2476237774
5000.485667000001,-0.06212754339,0.2549416722,-0.05547019601,0.2682014738
5010.521667,-0.07678943664,0.3334484361,0.05193789303,0.3460953942
5020.558667,-0.0558265838,0.3828695413,0.200588733,0.4358228229
5030.594667,-0.01317260742,0.359450127,0.3479438299,0.5004426243
5040.631667000001,-0.01628332615,0.294686805,0.481784842,0.5649974281
5050.667667,-0.05078423738,0.2126828215,0.5699292791,0.6104362411
5060.704667000001,-0.08485450119,0.1443205382,0.5696661544,0.5937577213
5070.740667,-0.1752185413,0.08999508083,0.4766036242,0.5157050188
5080.777667,-0.2743256307,0.06548150629,0.2847401065,0.4007733868
5090.813667,-0.3384216392,0.03437651172,0.1104357773,0.3576408972
5100.849667,-0.3907510033,0.0002537691593,0.03190065444,0.3920510971
5110.886667,-0.3490296578,-0.04360999614,0.07705870092,0.3600855137
5120.922667000001,-0.2805304036,-0.1019821653,0.1874629033,0.352476963
5130.959667,-0.2276046234,-0.1950566822,0.2737210286,0.4059238542
5140.995667,-0.1826892364,-0.3064613432,0.3247110879,0.4824222244
5151.032667,-0.135835205,-0.4029091188,0.3225265682,0.5336762578
5161.0686670000005,-0.1267199805,-0.4386059318,0.2439195246,0.5176194078
5171.105667,-0.09123644471,-0.3981291662,0.04906398654,0.411385703
5181.141667000001,-0.04580270201,-0.3089027019,-0.1849006534,0.3629146158
5191.178667,-0.0318211323,-0.239744174,-0.4207785022,0.4853291681
5201.214667,-0.02695858777,-0.1727005841,-0.5796157765,0.6053979729
5211.2516669999995,-0.02422004431,-0.1304101583,-0.691668309,0.7042715879
5221.2876670000005,-0.02174228668,-0.08210689455,-0.7366690654,0.7415494461
5231.324667,-0.01563457757,-0.06803966314,-0.667412889,0.6710542453
5241.360667,-0.003732862473,-0.08559125036,-0.5294291246,0.5363161329
5251.396667,0.01039342582,-0.1264403374,-0.3700825578,0.3912240813
5261.433667,0.06171882302,-0.1217698739,-0.2457409322,0.2811151385
5271.469667,0.103988345,-0.07631639689,-0.1587612605,0.2045553865
5281.506667000001,0.1586580572,-0.07107085973,-0.07080744267,0.1877155831
5291.542667,0.1551558673,-0.06949415803,0.009739707112,0.1702869433
5301.579667,0.1393227768,-0.06302070558,0.03254209399,0.1563375622
5311.615667,0.1512709773,-0.04150733739,-0.002003256083,0.1568750479
5321.652667,0.1496641624,-0.02292985618,-0.01566235185,0.1522184255
5331.688666999999,0.1385980144,-0.008716590554,-0.04848745108,0.1470932407
5341.725667000001,0.1429205686,-0.006539818347,-0.0816972971,0.1647528649
5351.761667,0.1365833563,0.009610629827,-0.06939943314,0.1535045886
5361.798667,0.1423302922,-0.01588381514,-0.02155166745,0.1448263858
5371.834667,0.1286492693,-0.04364317909,0.1046996588,0.171514956
5381.871667,0.1248634896,-0.08359764218,0.1943596941,0.2456728465
5391.9076669999995,0.1341146618,-0.1230865207,0.221763255,0.2869076077
5401.9436670000005,0.1457792723,-0.1467219897,0.1574935842,0.2599676279
5411.980667,0.1361038846,-0.1318080814,0.07140678227,0.2024760882
5422.016667,0.1532993764,-0.1112463476,-0.01983784854,0.1904468138
5432.053667,0.2066897178,-0.07679586858,-0.02660950899,0.2220952742
5442.089667,0.2247964981,-0.03075971648,-0.003132353425,0.2269128409
5452.1266669999995,0.2333734864,-0.02383763641,-0.01068344772,0.2348309032
5462.1626670000005,0.197713657,-0.03292684078,-0.05192035139,0.207052143
5472.199667,0.1314895543,-0.04520248532,-0.1398156971,0.1971831553
5482.235667,0.1035097504,-0.04275834918,-0.214513877,0.2419891491
5492.272667,0.1109430233,-0.05813842669,-0.1931037122,0.2301683617
5502.308667,0.1600166577,-0.06513900563,-0.07376847267,0.1878568827
5512.345667,0.2046531326,-0.0713342768,0.02492551088,0.2181576604
5522.381667000001,0.1949809608,-0.06965685681,0.01756737471,0.2077938051
5532.418667,0.1399759108,-0.04894031793,-0.09971373796,0.1786931444
5542.454667,0.06701844692,-0.003687400371,-0.2621663457,0.2706219909
5552.491667,-0.03398401737,0.05173455611,-0.4051395392,0.40984073
5562.527667,-0.1020780596,0.09271096632,-0.5066653293,0.5250952385
5572.563666999999,-0.1351347086,0.1278806528,-0.5221627897,0.554318347
5582.600667000001,-0.145687471,0.1346068512,-0.4109867549,0.4563485031
5592.636667,-0.1260551521,0.1172714648,-0.2331039298,0.2897929259
5602.673667,-0.08886159807,0.07098856017,-0.02388646066,0.116216704
5612.709667,-0.06614867359,0.01450460315,0.1413108301,0.156699653
5622.746667,-0.08044248462,-0.07379756257,0.2609103638,0.2828273175
5632.7826669999995,-0.05085878938,-0.113299305,0.2753488934,0.3020601961
5642.819667000001,-0.008347777426,-0.09123776034,0.2000665766,0.2200469254
5652.855667,0.06836096764,-0.04858436868,0.1445993042,0.1671604665
5662.892667,0.1630630571,0.03478537828,0.1373961192,0.216049246
5672.928667,0.219764092,0.08011401728,0.1623467731,0.2847296729
5682.965667,0.2574806795,0.09123776034,0.1849111784,0.3298678115
5693.0016669999995,0.2704851794,0.0902830562,0.2112476224,0.3548785996
5703.0376670000005,0.2718852952,0.07078946248,0.2252786011,0.3601155507
5713.074667,0.2739633957,0.05750414997,0.1765403044,0.3309518825
5723.110667,0.2400697178,0.05914429396,0.04527674496,0.2513593056
5733.147667,0.190456093,0.06657888249,-0.1174214458,0.2334396429
5743.184292,0.1353890625,0.08541042522,-0.2585328859,0.3040795818
5753.221292,0.08570322454,0.1189942007,-0.3884089011,0.4151700097
5763.257291999999,0.02018049538,0.1638464378,-0.479399178,0.5070270993
5773.2942920000005,-0.0343617475,0.1982406373,-0.4777239507,0.5183630514
5783.330292,-0.04683210433,0.2236771949,-0.4049103284,0.4649484999
5793.367292,-0.04001571268,0.229902433,-0.2572839206,0.3473491065
5803.403292,-0.04877104104,0.2493479334,-0.1111725265,0.2773307357
5813.440292,-0.06414980292,0.2151744662,0.004252679944,0.2245736704
5823.476291999999,-0.08664491862,0.1697290291,0.07794046104,0.205888321
5833.513292000001,-0.1413961995,0.1317310444,0.1300157636,0.2329164057
5843.549292,-0.179877018,0.1200931849,0.1349782956,0.2549455921
5853.586292,-0.2406860143,0.1336362134,0.1457412654,0.3114946411
5863.622292,-0.2402661842,0.1309988268,0.1870389801,0.3314696245
5873.658292,-0.2171913171,0.1471451819,0.2717452544,0.3777158404
5883.695291999999,-0.129370231,0.1297076154,0.3548745346,0.3993703262
5893.731292,-0.008363857269,0.120786957,0.4231606579,0.4401413244
5903.768292,0.05716267258,0.05586707577,0.4359760004,0.4432423426
5913.804292,0.09533885121,-0.043549916,0.3043159997,0.3218607143
5923.841292,0.101496554,-0.119448237,0.09543240666,0.1835123321
5933.877292,0.07660144866,-0.1765762648,-0.1666672808,0.2546074267
5943.9142919999995,0.07683621436,-0.1621441671,-0.4133759272,0.4506375395
5953.950292,0.09920678437,-0.101904982,-0.6107253027,0.6270661901
5963.987292,0.004150938392,-0.05143751755,-0.7813476402,0.7830499239
5974.023292,-0.1577412137,-0.004475751221,-0.9159979069,0.9294915214
5984.060292,-0.3065388188,0.0811292401,-1.01099645,1.059557371
5994.096292,-0.4402684414,0.2025880422,-1.090269492,1.193132759
6004.1332919999995,-0.5468848175,0.3441112724,-1.080854305,1.259262324
6014.1692920000005,-0.544891794,0.5094187832,-0.9703103542,1.223894092
6024.205292000001,-0.4706687003,0.6046667102,-0.7001374161,1.037951472
6034.242292,-0.3658769479,0.6507573876,-0.2660377872,0.7925447765
6044.278292000001,-0.2477169988,0.5630588007,0.2013956487,0.6472705245
6054.315292,-0.1614267138,0.4226066342,0.6201755726,0.7676409917
6064.351291999999,-0.07641784608,0.2827386045,0.9209838277,0.9664326239
6074.388292,-0.009516343474,0.1693110994,1.087058786,1.100206168
6084.424292,0.01134827614,0.08634978041,1.05919271,1.062767267
6094.461292,0.03620332807,0.06566847101,0.8985439682,0.9016675063
6104.497292,0.05770207822,0.09844971612,0.6591607136,0.6689654122
6114.534292,0.09757424176,0.1258803204,0.4279647303,0.4566403377
6124.570291999999,0.1493837884,0.1844874014,0.1910109937,0.304690527
6134.607292,0.1553704602,0.1859796108,0.02266673148,0.2433971574
6144.643292,0.1697104642,0.162780198,-0.03666847408,0.2379991838
6154.680292,0.1895255086,0.1306434622,-0.06933686793,0.2404063932
6164.716291999999,0.2176076388,0.1230265868,-0.07072850525,0.2597905829
6174.752292,0.2672376359,0.1221752322,-0.07881169617,0.3042269298
6184.7892919999995,0.2911547944,0.1231461623,-0.04269402981,0.3189966642
6194.8252919999995,0.2478751659,0.08882797658,0.006995608807,0.2634035798
6204.862292,0.2279367453,0.07423449576,0.06886909068,0.2494170641
6214.898292,0.1777588642,0.09898298219,0.07178568184,0.2157522391
6224.935291999999,0.1652440685,0.1118027101,0.03298355877,0.2022210754
6234.971292,0.1415233764,0.1366448982,-0.01167747438,0.1970711995
6245.0082919999995,0.1053491382,0.1462163517,-0.05585669696,0.1886733501
6255.044292,0.1212525415,0.1210781483,-0.06945673585,0.1848954704
6265.081292,0.0689687857,0.12131613,-0.06971927583,0.1559970327
6275.117292,0.009436528981,0.0793519789,-0.03209887505,0.08611691131
6285.154291999999,-0.01673590064,0.02045750722,0.01816671431,0.03207225407
6295.190292,-0.05476779923,0.0008664111793,0.05262201726,0.07595616632
6305.227292,-0.0775829038,-0.03164059952,0.02045005202,0.08624638617
6315.263292,-0.08793876126,-0.03499295443,0.02345318198,0.09750786808
6325.299292000001,-0.1233109076,-0.07148031101,0.02745677054,0.1451512627
6335.336292,-0.1449306951,-0.0920692344,0.03055988789,0.174400565
6345.372292,-0.1496457437,-0.1277970377,0.05365346611,0.2039721203
6355.409292,-0.1535129459,-0.1478575189,0.09532832623,0.2334856746
6365.445292,-0.1437486805,-0.1732018366,0.1418750864,0.2660659683
6375.482292,-0.1449230938,-0.2152392241,0.1912290949,0.3223339781
6385.518292000001,-0.1135296853,-0.2185936256,0.2010641116,0.3179605943
6395.555292,-0.1246901196,-0.2843987752,0.178030175,0.357945572
6405.591292,-0.1001692361,-0.3235504156,0.1540560061,0.3720913871
6415.628292,-0.07887119159,-0.3177545093,0.1311185485,0.3526764336
6425.664292,-0.0338071391,-0.2992087492,0.07603076041,0.3105631575
6435.701292,0.01649382591,-0.2845155734,0.01862689018,0.2856013285
6445.737292,0.04247709811,-0.222973921,-0.0657922858,0.2363266768
6455.774292,0.09723364145,-0.1251771927,-0.1585946149,0.2242230195
6465.810291999999,0.1648394412,-0.06561657697,-0.2114113444,0.275993357
6475.846292,0.205403038,-0.01010691226,-0.2500228482,0.3237344318
6485.8832919999995,0.2168904778,0.01711991653,-0.2544065058,0.33474952
6495.919292,0.2438553514,0.02040839061,-0.1884662855,0.3088712929
6505.956292,0.2514606786,-0.002138326764,-0.1040178734,0.2721337232
6515.992292,0.2052897482,-0.04025822595,-0.06294761539,0.2184651179
6526.029291999999,0.1319962156,-0.06259751335,-0.02933548093,0.1490034229
6536.065292,0.06573805287,-0.07064869076,-0.02049156725,0.09865411005
6546.102292,0.0209355171,-0.06799317777,-0.01075712264,0.07195195471
6556.138292,0.003931667805,-0.0440441519,-0.04016803265,0.05973956959
6566.175292,-0.01682346269,-0.007967562228,-0.05209518313,0.05532105432
6576.211292,-0.02451255128,-0.02509800375,-0.03259179533,0.04788528046
6586.248291999999,-0.05990150839,-0.0376986073,-0.03313734055,0.07815023377
6596.284292,-0.0844197607,-0.08062886462,-0.04888038397,0.1265582939
6606.321292,-0.1130187848,-0.1070141329,-0.03248596072,0.1589987673
6616.357292,-0.106727327,-0.1258624864,-0.006978651881,0.1651689722
6626.393292000001,-0.1421386497,-0.1497312592,-0.02423553944,0.2078706499
6636.430292,-0.1634798174,-0.1676298787,0.001579917669,0.2341536313
6646.466292,-0.138989924,-0.2053081669,0.02673288524,0.2493677797
6656.503292,-0.09320564076,-0.2570786834,0.03926346838,0.2762577797
6666.539292,-0.09211820483,-0.2923559587,0.03147380769,0.3081369351
6676.576292,-0.09374592349,-0.296765344,0.04131701052,0.3139507333
6686.612292000001,-0.1170809917,-0.2932890281,0.04453414857,0.3189195871
6696.649292,-0.1357280548,-0.2883529548,0.01861811936,0.3192431139
6706.685292,-0.1309086335,-0.2736222106,-0.02918754637,0.3047262662
6716.722292,-0.1034460157,-0.23236835,-0.09220298946,0.2705504011
6726.758292,-0.06292393416,-0.2189982529,-0.07091269255,0.2386383587
6736.795292,-0.05576182589,-0.2341842028,-0.07371701717,0.2517654081
6746.830916999999,-0.06535140574,-0.2548209272,-0.1188265318,0.2886594115
6756.8679170000005,-0.09276505306,-0.2704717308,-0.2328805661,0.3687731963
6766.903917,-0.122613481,-0.2396348311,-0.3960997438,0.478909099
6776.939917,-0.1522721668,-0.1604877971,-0.550256322,0.5930642172
6786.976917,-0.2136134058,-0.05666492835,-0.6148300481,0.6533433931
6797.012917,-0.2449322623,0.0579885187,-0.6818420631,0.7268170887
6807.049916999999,-0.249253647,0.1261633256,-0.6610908794,0.7176947235
6817.085917,-0.21727961,0.1633167531,-0.5237889004,0.5901166011
6827.122917,-0.1894190893,0.1483484658,-0.3726997715,0.4436124191
6837.158917,-0.1782421365,0.1244219517,-0.2369595838,0.3215601431
6847.195917,-0.1525173113,0.09175056115,-0.1348420554,0.2232981765
6857.231917,-0.1356045324,0.1001345182,-0.06777332246,0.1816830597
6867.268916999999,-0.1250856838,0.1247587513,-0.0006478714943,0.1766680335
6877.304917,-0.1135701773,0.1577402636,0.03126564682,0.196869796
6887.341917,-0.1235458195,0.2093587524,0.03533297002,0.245648276
6897.377917,-0.1692973584,0.2362633996,0.0387892592,0.2932347118
6907.414917,-0.209088538,0.2673969725,0.03418516159,0.3411565372
6917.450917,-0.2592421532,0.2949061487,0.04403538108,0.395114218
6927.486917,-0.3182326654,0.2940497509,0.07213183701,0.4392496866
6937.523917,-0.2867869243,0.2914140453,0.2093186259,0.4593290465
6947.5599170000005,-0.2252862024,0.268358474,0.4198476255,0.5468474853
6957.596917,-0.197358731,0.2093935434,0.5284426993,0.6017040894
6967.632917000001,-0.1374677476,0.1752935319,0.5923855108,0.6328868756
6977.669917,-0.06919127226,0.1356914366,0.6308286148,0.6489563463
6987.705917,-0.009097098112,0.1157936541,0.6105984181,0.6215475491
6997.7429170000005,0.04658827543,0.09969254181,0.5634224975,0.5740679237
7007.778917000001,0.1109786913,0.1065321761,0.4946615803,0.5180303597
7017.815917,0.1256326908,0.1342346028,0.4200189489,0.4584958223
7027.851917,0.1555789134,0.1386135826,0.2954750097,0.3615577477
7037.888917,0.1532882667,0.1145105557,0.1685559314,0.2549922785
7047.924916999999,0.1357495433,0.1068651751,0.06068064988,0.1831126577
7057.9619170000005,0.1366389048,0.09840856634,0.0106150353,0.1687220057
7067.997917,0.1592457023,0.07275653891,-0.02927817822,0.177510336
7078.034917,0.1570825249,0.1109841,-0.04957094014,0.1986194053
7088.070917,0.1505403677,0.08486597635,-0.07711483419,0.1892388276
7098.106917,0.09563647449,0.04164321207,-0.0656051749,0.1232255304
7108.143916999999,0.04575563192,0.002315278128,-0.03390215635,0.05699381169
7118.179917,-0.001892743707,-0.02652567454,-0.01596991539,0.03101986599
7128.216917,-0.0370947361,-0.01693382889,0.00773645103,0.04150453809
7138.252917,-0.07309545815,0.02369525671,-0.02162183404,0.07982427513
7148.289917,-0.09269795626,0.05255565137,-0.1018497258,0.1474054756
7158.325917,-0.08994304061,0.08802961238,-0.1094364882,0.1667792198
7168.3629169999995,-0.1199983138,0.08634298302,-0.08902561247,0.1725695967
7178.398917,-0.1507871202,0.06700339034,-0.09311924815,0.1894661033
7188.435917,-0.1575152189,0.0560733363,-0.0598678869,0.177593432
7198.471917,-0.1764566892,0.05201946169,-0.03307886839,0.1869149515
7208.508916999999,-0.1949002692,0.02656894393,-0.02271117032,0.1980096487
7218.544917,-0.2125071126,0.01054998502,-0.0006449478865,0.2127698077
7228.5819169999995,-0.2168132946,-0.01709769711,0.03594868183,0.2204373918
7238.617917,-0.2282688671,-0.02825645037,0.09707196593,0.2496559017
7248.653917000001,-0.2092946523,-0.05966155328,0.1678530961,0.2748425264
7258.690917,-0.1965085459,-0.05044422179,0.1789932114,0.2705527635
7268.726917,-0.2170913297,-0.03270069972,0.1794826233,0.2835700853
7278.763917,-0.2097714928,-0.0353920269,0.1932937467,0.2874354663
7288.799917,-0.1751594844,-0.01207150362,0.1633407998,0.2398057194
7298.836917,-0.1428977644,-0.001977455243,0.1265343314,0.1908785437
7308.872917000001,-0.1026350069,0.02203486674,0.0683545357,0.125267005
7318.909917,-0.06684273809,0.01256749369,0.0347330457,0.07636935247
7328.945917,-0.06139722615,0.02395940468,-0.04345884562,0.07894519437
7338.982917,-0.06505992204,0.0106067761,-0.1270313448,0.1431162454
7349.018917,-0.08751176834,0.01219151773,-0.2008062494,0.2193857162
7359.055917,-0.1013991979,0.005272507444,-0.2455520672,0.2657167935
7369.091917000001,-0.08503693432,0.0005422561616,-0.2517612255,0.2657353738
7379.128917,-0.05500592709,0.01249484204,-0.2320590323,0.2388161795
7389.164917,-0.05009982079,0.00943630971,-0.2167726564,0.2226868217
7399.200917,-0.06243569165,-0.01721069455,-0.1717859334,0.1835887538
7409.2379169999995,-0.06400888503,-0.03636690393,-0.1117250884,0.133799045
7419.2739169999995,-0.1070695353,-0.06165611163,-0.04584743321,0.1317852367
7429.310917,-0.1160236689,-0.07791254058,-0.05136603534,0.1488970293
7439.346917,-0.1013187987,-0.04866330609,-0.04812784731,0.1222698082
7449.383916999999,-0.1076165423,-0.01595953658,-0.02756552875,0.112231392
7459.419917,-0.09689216405,-0.004766211659,-0.003111303449,0.09705920068
7469.4569169999995,-0.08923728168,0.009230414629,-0.01858712912,0.09161863547
7479.492917,-0.06471902937,0.01273684368,0.007610735893,0.06639806661
7489.529917,-0.05920042723,0.01013216492,0.05707057893,0.08285168876
7499.565917,-0.05333420813,0.02170131963,0.09565635502,0.1116495557
7509.602916999999,-0.01063316166,0.02819235027,0.1264062774,0.1299477576
7519.638917,0.006477837861,0.03108003426,0.1835452688,0.1862707615
7529.674917,-0.006141915321,0.01927319024,0.1860116243,0.1871082665
7539.711917,0.00531219542,0.007311139181,0.1809993911,0.1812248651
7549.747917000001,0.03866295934,0.01377951186,0.1772560036,0.1819461189
7559.784917,0.08457061887,0.04075545855,0.1684600371,0.192852226
7569.820917,0.1268223068,0.05608941615,0.1427930993,0.1990472037
7579.857917,0.1707530227,0.05961996496,0.1523468649,0.2364755849
7589.893917,0.2110543719,0.03778222248,0.1267524326,0.2490735301
7599.930917,0.2370882225,0.04226206675,0.105881381,0.2630737052
7609.966917000001,0.2447454438,0.02093376294,0.08197153151,0.2589553758
7620.003917,0.2273917848,0.005794371441,0.05571110129,0.2341886533
7630.039917,0.208407045,0.01619802989,0.01684465885,0.2097131734
7640.076917,0.1864916807,0.03805945359,-0.0342126435,0.1933860749
7650.112917,0.1238194692,0.03309728712,-0.05958254278,0.1413392047
7660.149917,0.07139157951,0.04217245817,-0.07763055861,0.1135859916
7670.185917000001,0.07576880515,0.006919229552,-0.06980756879,0.1032564004
7680.222917,0.04160352409,-0.01675863169,-0.04789337397,0.06561615824
7690.258917,0.009625978768,-0.01655178644,-0.06592209399,0.06864651176
7700.294917,-0.02523892164,-0.01390445955,-0.09256785572,0.0969491881
7710.331917,-0.1141274169,-0.0274481459,-0.1286545318,0.1741564141
7720.367917,-0.1730176494,0.04554052748,-0.213203516,0.2783249645
7730.404917000001,-0.2372800112,0.08816797212,-0.2778819072,0.3758906083
7740.440708,-0.3282489458,0.118722963,-0.3573449832,0.4995377357
7750.477708,-0.3942236647,0.1440337323,-0.4201715612,0.5938873249
7760.513708,-0.44429308,0.17004339,-0.4263585001,0.6388213099
7770.550708,-0.4091369882,0.2138722182,-0.4109388077,0.6180656151
7780.586708000001,-0.3242146593,0.2955987514,-0.3342812258,0.5515774697
7790.623708,-0.2301393914,0.4048675706,-0.2683807665,0.5375036047
7800.659708,-0.1498202831,0.4759173804,-0.2852792197,0.5747414231
7810.696708,-0.1078907767,0.5070928339,-0.3397688377,0.6198600043
7820.7327080000005,-0.1216182849,0.5376669013,-0.4188775724,0.6923403243
7830.769708,-0.193864435,0.5363045,-0.5065583253,0.7627629205
7840.805708000001,-0.2049443239,0.5138152681,-0.5628757828,0.7892005148
7850.842708,-0.2956790775,0.3731435021,-0.559320091,0.7345074229
7860.878708,-0.4136636102,0.131081236,-0.5149812394,0.6734282069
7870.914708,-0.5210395396,-0.1084830996,-0.3700486439,0.6482181605
7880.9517080000005,-0.6087205848,-0.3674929356,-0.009363146424,0.7111114375
7890.987708,-0.5962370718,-0.5753856449,0.2305241382,0.8600631747
7901.024708,-0.5740936661,-0.632812502,0.4032006025,0.9447782417
7911.060708,-0.5100508672,-0.6344625863,0.5052953267,0.9581325731
7921.097707999999,-0.4152563918,-0.5821484249,0.5416445428,0.8970582313
7931.133708,-0.3438092637,-0.5100860236,0.5375152391,0.8168936244
7941.170708,-0.4776733723,-0.3930664276,0.4405268884,0.7594320289
7951.206708,-0.6449654281,-0.2688151781,0.119237591,0.708843852
7961.243708,-0.03992420375,-0.4872564472,-0.03358289838,0.4900414252
7971.279708,0.0749133575,-0.2527605694,0.08676390946,0.2775389929
7981.316707999999,0.1529874274,-0.04395185726,0.1935159409,0.2505700263
7991.352708,0.2802319032,0.01036690322,0.210618462,0.3507100352
8001.389708,0.2733430061,0.09791519838,0.1809789258,0.3421361668
8011.425708000001,0.2183569595,0.1421253198,0.04552642107,0.2644844482
8021.461708000001,0.09156301171,0.1430044579,-0.1814350086,0.2485009506
8031.498708000001,-0.04529253244,0.132068986,-0.3585155958,0.3847428531
8041.534708,-0.06142353863,0.1426059884,-0.4901650715,0.5141703184
8051.571708000001,-0.07134012401,0.1429894652,-0.5009210247,0.5257920439
8061.6077080000005,-0.1116780183,0.1229107571,-0.4256428009,0.4568925781
8071.644707999999,-0.1186362049,0.08794506529,-0.3584015751,0.3876345865
8081.680708000001,-0.1110041267,0.01861304416,-0.2747670954,0.2969264527
8091.717707999999,-0.1381021705,-0.07285085724,-0.1589015937,0.2227760611
8101.753708,-0.2217740723,-0.2085339661,-0.1237288374,0.3286015511
8111.7907079999995,-0.2979437041,-0.334271651,-0.1120642269,0.4615911377
8121.8267080000005,-0.3432257116,-0.4104354355,-0.1077296859,0.5457717665
8131.863707999999,-0.3658468348,-0.4540682358,-0.1234674668,0.5960420159
8141.899708000001,-0.3783753714,-0.4685029647,-0.09698952019,0.609975341
8151.936707999999,-0.3843769535,-0.4692465113,-0.1139815289,0.6171950419
8161.972708,-0.3008448002,-0.4005132222,-0.1637126827,0.5269917243
8172.008708,-0.1739935496,-0.2893871628,-0.2318912172,0.409624489
8182.045708000001,-0.09580721319,-0.2013318044,-0.208180173,0.3050450819
8192.081708,0.009163171649,-0.1329203863,-0.1480591017,0.1991815514
8202.118708,0.1457164147,-0.1124707545,-0.06323646784,0.1946324614
8212.154708,0.2377156287,-0.1066068378,0.07974958956,0.272458685
8222.191708,0.3077828139,-0.09519987021,0.1967061818,0.3774739697
8232.227708,0.3685622817,-0.08799544271,0.2565085799,0.457578414
8242.264708,0.440178979,-0.09432805035,0.3551762509,0.5734156293
8252.300708,0.5108495969,-0.05243863396,0.4224455434,0.664964178
8262.337708000001,0.5665820405,0.02248988975,0.4498315626,0.7237882553
8272.373708,0.6140821892,0.05845677104,0.444658531,0.7604178709
8282.410708000001,0.6376812592,0.05526696872,0.4151821321,0.76293383
8292.446708,0.651717208,0.07519292749,0.3938181603,0.7651679809
8302.483708,0.6633063895,0.1110657782,0.3670443445,0.7661804776
8312.519708,0.6901515412,0.1277588115,0.3042253679,0.764973554
8322.555708,0.6469251224,0.1711707332,0.2274344695,0.7067800024
8332.592708,0.6185693425,0.1867043732,0.1301017177,0.6591001528
8342.628708,0.5936888552,0.2013008507,0.01232008338,0.6270089901
8352.665708,0.5699126145,0.2176774034,-0.04462361097,0.6116985424
8362.701707999999,0.5107823539,0.2120709834,-0.05947378457,0.55624621
8372.738708,0.4605383992,0.1939214088,-0.08994128644,0.5077307997
8382.774707999999,0.3965514413,0.1822150638,-0.1158555615,0.4515283891
8392.811708,0.3132429439,0.1452900065,-0.1357138753,0.3710102207
8402.847708,0.2463975745,0.1588947963,-0.125159651,0.3187856008
8412.884708,0.2084810123,0.1614387371,-0.13692191,0.2971100937
8422.920708,0.1515417033,0.1516206042,-0.1412441719,0.2567169873
8432.957708,0.09514180005,0.1735312542,-0.1018959188,0.2225934333
8442.993708,0.04502092928,0.163976648,-0.07339366615,0.1852076008
8453.030708,-0.001776091754,0.1545087633,-0.05872826457,0.16530312
8463.066708,-0.04233793437,0.1327755763,-0.03946402788,0.1448422033
8473.103708,-0.06957163364,0.1219714567,-0.01123834848,0.1408671322
8483.139707999999,-0.08160637289,0.09894629091,0.0443721807,0.1357160971
8493.175708,-0.1222442293,0.09048164226,0.09900213182,0.1814717644
8503.212708,-0.1288375497,0.07234018061,0.1417318296,0.2047440536
8513.248708000001,-0.1675683367,0.05100613922,0.2096507478,0.2731926239
8523.285708,-0.2010144103,0.03960772321,0.2474956816,0.3212937555
8533.321708000001,-0.2348256424,0.02254799645,0.2274467486,0.3276942446
8543.358708,-0.2505379879,0.0109493864,0.2038006085,0.3231468095
8553.394708000002,-0.2571155208,-0.003060249947,0.2059015131,0.3294134018
8563.431708,-0.2423793679,0.01032925263,0.1995666397,0.3141357909
8573.467708,-0.2015432909,0.01056599177,0.2187671417,0.2976413959
8583.504708,-0.1609335011,0.001075412594,0.2550426829,0.3015750626
8593.540708,-0.135888707,-0.0009294880182,0.2682421875,0.3006999764
8603.577707999999,-0.07422309369,0.01642084535,0.2924391353,0.302157839
8613.613708,-0.02512987107,0.01292830344,0.3019040233,0.3032238294
8623.650708,0.00734059453,0.004780318066,0.2487516636,0.2489058575
8633.686708000001,-0.001782231331,-0.0005125084519,0.1703738308,0.170383923
8643.722708000001,0.001249257624,-0.0009076705948,0.07408012927,0.07409622165
8653.759708000001,0.01129155815,0.0006719912589,0.008797720671,0.01433006443
8663.795708,0.004069369733,-0.002214377113,-0.05874405205,0.05892645321
8673.832708000002,-7.776796818e-05,0.007109994963,-0.137816534,0.1379998374
8683.868708,-0.009838525057,-0.004378870167,-0.2425372428,0.242776204
8693.905708,0.004152692556,0.04140369549,-0.3385660654,0.341113605
8703.941708,0.03188106626,0.08724721838,-0.3865220046,0.39752703
8713.978708,0.09699010491,0.0996668506,-0.4065557349,0.4296837524
8724.014708,0.1181847998,0.1598351017,-0.3950191784,0.4422160761
8734.051708,0.1401723772,0.1956645734,-0.3334900975,0.4112767508
8744.088208000001,0.1553529185,0.1887032073,-0.2851932657,0.3756043511
8754.125208,0.141600852,0.1776972126,-0.2667622572,0.3504129029
8764.161208000001,0.1047657323,0.1705588586,-0.2292336577,0.3043258989
8774.198208,0.08923581988,0.1654080098,-0.1554564142,0.2439047724
8784.234208000002,0.09702197224,0.1683744119,-0.09822737575,0.2177425614
8794.271208,0.08598096728,0.1694008541,-0.04790448368,0.1959189007
8804.307208,0.06820952475,0.1753473628,-0.05627477288,0.1963825017
8814.343208,0.04223823935,0.1956197691,-0.04300276279,0.2046958733
8824.380207999999,0.04025837213,0.208644917,-0.01841755986,0.2132900477
8834.416208,0.02689163715,0.2098329251,0.04743495226,0.2168019633
8844.453207999999,-0.0005543160439,0.2159010559,0.1097346961,0.2421885149
8854.489208,-0.02372683167,0.2037645385,0.1856935358,0.2767038831
8864.526208,-0.04624592096,0.2028825957,0.2450649941,0.3214916549
8874.562208000001,-0.0690433377,0.1845667408,0.2760850579,0.3391973223
8884.599208,-0.09303358644,0.1469838718,0.2852844822,0.3341358146
8894.635208,-0.1374990302,0.09620478731,0.2554005325,0.3055990452
8904.672208,-0.1392546567,0.05370696813,0.203348034,0.2522433761
8914.708208,-0.1609177136,0.04282376491,0.1571924525,0.2289931277
8924.745207999998,-0.18990587,0.04058417168,0.07019173086,0.2064901778
8934.781208,-0.2166978121,0.08315186508,-0.02482376933,0.2334274918
8944.818207999999,-0.2472237861,0.1273438784,-0.1466551852,0.3143943497
8954.854208,-0.2725778979,0.1490099321,-0.2644432515,0.4079618898
8964.890208,-0.3170640993,0.1741006633,-0.3052533084,0.4733077924
8974.927208000001,-0.3549312526,0.1382202112,-0.2893898124,0.4783591583
8984.963208,-0.3654954171,0.1024224972,-0.1876564461,0.4234291081
8995.000208000001,-0.3659535465,0.05160668481,-0.003367996216,0.3695897611
9005.036208,-0.3420314178,0.0007460316271,0.1188306248,0.3620866812
9015.073208,-0.3017981887,-0.02736343436,0.1632694638,0.3442206008
9025.109208,-0.2683942151,-0.05943720292,0.1412330621,0.3090550333
9035.146208,-0.1944026712,-0.04954484694,0.1100369972,0.2288126552
9045.182208,-0.1445536959,-0.03984552216,0.08072724402,0.1702948166
9055.219208,-0.1035372323,-0.0376974744,0.100133568,0.1488885136
9065.255208,-0.04183565855,-0.06545453601,0.1160181141,0.1396234988
9075.292208,0.02052986652,-0.06045450881,0.1556411862,0.168227233
9085.328208,0.07073376775,-0.04522591073,0.1480380517,0.1701878775
9095.365208000001,0.09984559268,-0.01634987477,0.09011436403,0.135488226
9105.401208,0.124700937,0.02440646086,0.04065101266,0.1334110334
9115.438208,0.1275882921,0.05518309772,-0.04029491723,0.1447329503
9125.474208,0.1182283616,0.1046297845,-0.08895895422,0.1812154321
9135.510208,0.1234709752,0.1506062585,-0.1323148888,0.235445443
9145.547208,0.1467829469,0.1848903111,-0.1677706504,0.2896146608
9155.583208,0.1642561814,0.2141603763,-0.153472454,0.3104811653
9165.620208,0.1828766397,0.1744228449,-0.1077764636,0.2747416246
9175.656208,0.2245728421,0.1490315668,-0.005243782997,0.2695753449
9185.693208,0.2301271123,0.1109130563,0.07384273231,0.2659190534
9195.729207999999,0.2247625843,0.05365591463,0.128969112,0.2646322133
9205.766208000001,0.2108213603,0.01783002432,0.1804953611,0.2781045327
9215.802208,0.1857344663,0.00589315284,0.1761011785,0.2560149338
9225.839208,0.1560268101,-0.03554902464,0.1219705796,0.2012086502
9235.875208,0.1393514282,-0.03733041544,0.06801247358,0.159493188
9245.912208,0.1323590353,-0.03468323473,0.05029950321,0.1457802491
9255.948208,0.1163771331,-0.05035497867,0.02450217247,0.1291495933
9265.985208,0.08380112529,-0.06005320709,0.01631080806,0.1043793981
9276.021208,0.09509239107,-0.04463523231,0.03221581936,0.1098759565
9286.057208,0.1008241242,-0.04912541885,0.05795233905,0.1262429578
9296.094207999999,0.1021412095,-0.02688491285,0.09438517034,0.1416481048
9306.130208,0.08133827806,-0.008128031753,0.08250128925,0.1161397568
9316.167207999999,0.06722953141,0.01270227201,0.07925666928,0.1047032819
9326.203208,0.04498292238,0.02327272229,0.06270729482,0.08060575496
9336.240208,0.0003756836057,0.01585121691,0.06808264017,0.06990456429
9346.276208000001,-0.01928791791,0.01863452811,0.1036863363,0.1070986729
9356.313208,-0.03688277453,-0.02519181501,0.1673835647,0.1732403658
9366.349208000001,-0.03360190183,-0.05152617596,0.2098337656,0.2186646835
9376.386208,-0.02449018568,-0.0594149835,0.1910606951,0.2015790134
9386.422208,-0.01651399881,-0.03830920279,0.1434088111,0.1493532533
9396.459208,0.03738154203,-0.01849415839,0.05302196681,0.06745919169
9406.495208,0.07567086428,0.02350332186,0.02967169583,0.08461025572
9416.532207999999,0.1054679829,0.0133811703,0.04997147441,0.1174721217
9426.568208,0.130016056,-0.008440675065,0.06363758683,0.1450005596
9436.605207999999,0.09567418903,-0.02882710207,0.06711200237,0.1203684889
9446.641208000001,0.06606301188,-0.06761672672,0.03371504545,0.1003645732
9456.677208000001,0.007763055861,-0.09310645737,0.01919114649,0.09538017374
9466.714208000001,-0.03301630318,-0.1011639205,-0.008490741849,0.1067534908
9476.750208,-0.04945311874,-0.08196985044,-0.05846280098,0.1121720394
9486.787208000002,-0.05606953561,-0.04411358759,-0.1339246273,0.1517419099
9496.823208,-0.01925429642,-0.02149209894,-0.1683816844,0.1708362663
9506.860208,0.006615247428,-0.0294564452,-0.1532660472,0.1562111548
9516.896208,0.02894313276,-0.05184828445,-0.1270535642,0.1402446352
9526.933208,0.07837783277,-0.09254945526,-0.07630674899,0.1432871462
9536.969208,0.07807085395,-0.1004355767,-0.03968563735,0.1332565688
9547.006208,0.06422669381,-0.1078988897,-0.05476794541,0.1369918481
9557.042208,0.02460449874,-0.107454282,-0.07456486344,0.1330853972
9567.079208,-0.02829379946,-0.09482177462,-0.1605756515,0.1886166692
9577.115208000001,-0.05957611084,-0.06828056842,-0.2206446826,0.2385280382
9587.152208,-0.09070493281,-0.04580798278,-0.2604367393,0.2795586724
9597.188208,-0.1153524086,-0.01539138822,-0.2819088846,0.304984741
9607.224208,-0.1311355054,-0.004775530659,-0.2658419055,0.2964645766
9617.261208,-0.1461052546,-0.01135026785,-0.1964342862,0.2450755043
9627.297208,-0.1336313894,-0.04008516664,-0.1087161112,0.1768710311
9637.334208,-0.124204216,-0.07638179434,0.01839358628,0.1469666282
9647.370208,-0.1010831559,-0.1094821878,0.1153363287,0.1884320105
9657.407208,-0.1032419479,-0.1219590679,0.1695043498,0.2329477166
9667.443208,-0.08538104296,-0.15655591,0.1691950321,0.2458182954
9677.480208,-0.07608016938,-0.1347821032,0.1111169779,0.1905292374
9687.516208,-0.1012959945,-0.1099662276,0.01845673621,0.1506456134
9697.553208000001,-0.1394742197,-0.07672815051,-0.07849828541,0.177488726
9707.589208,-0.1887618622,-0.04798296427,-0.1718841666,0.2597644553
9717.626208,-0.2307925254,-0.02440043092,-0.2763002354,0.3608356841
9727.662208,-0.2607992667,0.009931514058,-0.3196386284,0.4126545107
9737.699208,-0.2569211009,0.0372003697,-0.3341362149,0.4231303932
9747.736042,-0.2331621096,0.07476361396,-0.3231042731,0.4054017003
9757.773042,-0.1964927584,0.08255164839,-0.2393779922,0.3205089732
9767.809041999999,-0.1684047809,0.07598076671,-0.1119268173,0.2160112487
9777.845041999999,-0.1921976861,0.02424339663,0.00746397078,0.1938643951
9787.882042,-0.1896556091,-0.04964097882,0.09836478531,0.2193378851
9797.918042,-0.2215059775,-0.07372664681,0.1671479219,0.2871218284
9807.955042,-0.2126676187,-0.06161653329,0.1589045173,0.272533959
9817.991042,-0.216590808,-0.02353540845,0.09240588784,0.2366523646
9828.028042,-0.210043973,0.008828308918,0.03300110042,0.2128038587
9838.064042,-0.2207668895,0.05424467443,-0.0001912039518,0.2273335451
9848.101042,-0.1982916543,0.05792984555,0.03068034053,0.2088461885
9858.137041999998,-0.1322499847,0.06610553211,0.08744218647,0.1717735015
9868.174042,-0.08977171719,0.03139366429,0.1319985545,0.1626903247
9878.210041999999,-0.1114835984,-0.02528328739,0.1407103211,0.1812932204
9888.247041999999,-0.07466338903,-0.065548128,0.2002922791,0.2235803565
9898.283042,-0.03843637973,-0.09901773658,0.2405912894,0.2629943649
9908.320042,-0.02497579694,-0.09115915183,0.2249955958,0.2440426183
9918.356042,-0.003016870916,-0.09103767592,0.1450466162,0.1712760369
9928.393042,-0.001264752746,-0.05081862632,0.02210656822,0.05543313755
9938.429042,0.04245663285,-0.02258238539,-0.128372696,0.1370842037
9948.465042,0.06995901167,0.01157883916,-0.192146523,0.2048136205
9958.502042,0.1093514112,0.00570152862,-0.1910197645,0.2201789931
9968.538042,0.1187443784,-0.01423437042,-0.1620894957,0.2014344789
9978.575041999999,0.1104001093,-0.04073868435,-0.121572969,0.1691975512
9988.611042,0.08742873788,-0.06734011687,-0.06825864136,0.1297602315
9998.648041999999,0.06871267766,-0.06537678631,-0.03633518279,0.1015667355
10008.68404,0.07019406974,-0.05270424373,-0.04108896911,0.09691877072
10018.72104,0.06517686635,-0.02547016075,-0.03729354143,0.07929414372
10028.75704,0.07124686092,-0.004899016544,-0.0128492564,0.07256182842
10038.79404,0.08704632998,0.005347315259,0.01438473523,0.0883887886
10048.83004,0.07745660394,-0.01202494517,0.03949501812,0.08777232626
10058.867040000001,0.05259599715,-0.008177806176,0.04963116646,0.07277683776
10068.903040000001,0.03713829786,-0.007694405895,0.04694729447,0.06035317314
10078.940040000001,0.03250818014,4.135077819e-05,0.0308177501,0.04479416488
10088.97604,0.03400682151,0.02672961446,0.03324375987,0.05455349456
10099.013040000002,0.01648973286,0.03793063212,0.003636383414,0.0415194825
10109.04904,0.001743054986,0.05435071003,-0.02640193284,0.06044915201
10119.08504,-0.001450109482,0.03316695121,-0.03189714611,0.04603886836
10129.12204,-0.01451454341,0.003228932982,-0.003855654001,0.01536112126
10139.15804,-0.02486089915,-0.02607664492,0.01405378282,0.03867252938
10149.19504,-0.05027523726,-0.07305319374,0.01568047822,0.09005690421
10159.23104,-0.07331765234,-0.08545186736,-0.004143921733,0.1126706345
10169.26804,-0.0507833603,-0.0967006586,0.004641519785,0.1093229654
10179.304039999999,-0.03244152188,-0.06085471418,0.001396315098,0.06897607031
10189.341040000001,0.01009521782,-0.0292316289,-0.0005858910084,0.03093129191
10199.37704,0.03622730166,-0.02070601389,-0.006427844167,0.04221935074
10209.41404,0.01674701035,-0.0119626906,-0.009240939617,0.02256021469
10219.45004,0.02189665318,-0.02297563805,0.005975269675,0.03229624145
10229.48704,0.03791948587,-0.01080859641,0.03163109779,0.05054937697
10239.52304,0.05324386865,0.003127556881,0.05187649727,0.07440337445
10249.56004,0.0562127924,0.01041224655,0.07698210239,0.09588814836
10259.59604,0.09623435229,0.02391155801,0.1009545171,0.1415084015
10269.632039999999,0.130058156,0.02899548361,0.1148667973,0.1759268119
10279.66904,0.1859543216,-0.00837641051,0.1066596454,0.2145354375
10289.705039999999,0.2055574045,-0.0343050021,0.1142540091,0.2376650128
10299.74204,0.1862744567,-0.03586746949,0.08692880094,0.208665438
10309.77804,0.1404223457,-0.03935972817,-0.002572190166,0.1458569146
10319.81504,0.05184989244,0.002484075367,-0.1468662697,0.1557699687
10329.85104,-0.04367490023,0.04132516008,-0.2518501031,0.2589280599
10339.88804,-0.1318918428,0.03999151526,-0.319244526,0.3477238083
10349.92404,-0.1911796859,0.03771251727,-0.3006842941,0.358305667
10359.96104,-0.201792967,0.02326688878,-0.1900368476,0.2781649746
10369.99704,-0.187545349,-0.004613137948,-0.02736672342,0.1895876487
10380.03404,-0.184914102,-0.07962430383,0.1074823487,0.2282229396
10390.070039999999,-0.2001431751,-0.1348999429,0.17902771,0.3005099101
10400.10704,-0.2163224208,-0.1646437239,0.2132239813,0.3454958925
10410.143039999999,-0.2015096694,-0.1203748927,0.1494805598,0.2782816908
10420.18004,-0.1999961177,-0.04420888807,0.04791676283,0.210354199
10430.21604,-0.1717818403,0.01908248421,-0.02901096046,0.17525632
10440.252040000001,-0.1562431571,0.05628755453,-0.07456837177,0.1820457497
10450.28904,-0.1468010733,0.05692696127,-0.06360835075,0.1698153595
10460.325040000002,-0.115477539,0.02207171561,-0.04033350885,0.1242940649
10470.36204,-0.1103343281,-0.02929475599,0.0020471102,0.1141754674
10480.39804,-0.06369021177,-0.07859718558,0.037132743,0.1077627081
10490.43504,-0.04353339761,-0.06037632971,0.02965649307,0.08012468707
10500.47104,-0.009651998878,-0.02334961774,-0.01222945154,0.02807000563
10510.508039999999,0.01008995533,0.02293711267,-0.04645671308,0.05278394194
10520.54404,0.030138596,0.06287712903,-0.1121191907,0.1320325007
10530.58104,0.05828416854,0.1188448957,-0.1484473568,0.1988913555
10540.617040000001,0.07961978137,0.1449473232,-0.117891562,0.2030946983
10550.65404,0.09346247971,0.1396565432,-0.0487131536,0.1749633004
10560.690040000001,0.1053171247,0.1092480525,0.02701589048,0.1541320605
10570.72704,0.1177626309,0.08343841519,0.08987638235,0.1700228528
10580.763040000002,0.1261077771,0.06320710842,0.1468212461,0.2036044899
10590.80004,0.1571623394,0.0462362228,0.1870693856,0.2486619076
10600.83604,0.2026609862,0.04819307575,0.1875833559,0.2803240327
10610.87304,0.2409383217,0.06290359225,0.1728992432,0.3031538967
10620.90904,0.2561144775,0.04500149642,0.1080460203,0.2815913755
10630.94504,0.2508958375,0.01586477058,0.0251482898,0.2526516351
10640.98204,0.2067926288,-0.01116576078,-0.07592375636,0.2205726237
10651.01804,0.1342678589,-0.04828312287,-0.1758591038,0.2264631146
10661.055040000001,0.05620255977,-0.07549783695,-0.256438998,0.2731659034
10671.091040000001,-0.04149447352,-0.09083863305,-0.2848225522,0.3018233504
10681.128040000001,-0.07907423615,-0.1011979075,-0.2943763179,0.3211715551
10691.16404,-0.1525199425,-0.08714548596,-0.3000106949,0.3476536863
10701.20104,-0.1998718643,-0.1125207665,-0.2763253784,0.3591175292
10711.23704,-0.2094519424,-0.1155774807,-0.1904905915,0.3058021185
10721.27404,-0.2073019212,-0.1181469939,-0.07179328322,0.2491727799
10731.31004,-0.1864349627,-0.1285007866,0.03807122111,0.229608069
10741.34704,-0.187857298,-0.1339185791,0.09414660394,0.2491749049
10751.38196,-0.2377191371,-0.1324655734,0.06826916635,0.2805676306
10761.41896,-0.2591404116,-0.1064943976,-0.035503124,0.2824097758
10771.45496,-0.2599344635,-0.06259774175,-0.1127290553,0.2901589952
10781.49096,-0.2509192264,-0.02508185995,-0.164493286,0.3010773971
10791.52796,-0.2187984243,0.006339432439,-0.1766139793,0.2812568872
10801.56396,-0.2197056198,-0.007627784181,-0.1544261348,0.2686562368
10811.60096,-0.2160171962,-0.03011396003,-0.09544994831,0.2380776602
10821.63696,-0.1652203873,-0.04288450743,-0.01694581568,0.1715343057
10831.67396,-0.09890243679,-0.04186546565,0.05973340094,0.122892182
10841.70996,-0.02111488044,-0.03744108313,0.115783056,0.123504611
10851.74696,0.02152243137,-0.03215741116,0.1494788057,0.1544060474
10861.782959999999,0.06472575366,-0.03476766304,0.1341935992,0.1529906391
10871.81996,0.1211405674,0.003238261119,0.1121127588,0.1650902604
10881.855959999999,0.1407959828,0.06253752457,0.06495905757,0.167194886
10891.89296,0.1721937767,0.08585847725,0.009994645715,0.1926713985
10901.92896,0.2090128165,0.07923320733,-0.0358042556,0.2263762429
10911.96596,0.2548579109,0.09660099098,-0.05293133497,0.2776437149
10922.00196,0.3007205468,0.1029570697,-0.05674255013,0.3228819018
10932.03896,0.3095896035,0.07667562607,-0.03185387671,0.320530098
10942.07496,0.3205943558,0.0522595173,0.008295444846,0.3249317044
10952.11096,0.3281121209,-0.007428311901,0.05081464291,0.3321067173
10962.14796,0.3218000516,-0.06285789717,0.08259075165,0.3381236767
10972.18396,0.3032564843,-0.08126984736,0.09156505823,0.3270373728
10982.220959999999,0.2936845922,-0.05698811492,0.04063639462,0.3019099229
10992.25696,0.2415894091,-0.03137581201,-0.04564687371,0.247857865
11002.293959999999,0.1935618415,-0.02615601174,-0.1311787748,0.2352832217
11012.329960000001,0.1241776112,-0.03303344283,-0.1741762751,0.216445518
11022.36696,0.05562924027,-0.02054105845,-0.2481704503,0.2551570494
11032.402960000001,0.03444360852,0.01420486939,-0.321420275,0.323572455
11042.43996,0.04273993045,0.05183064231,-0.3270289242,0.3338578057
11052.47596,0.01960249811,0.0879125767,-0.3312009126,0.3432301321
11062.51296,-0.01145557255,0.07594061279,-0.3176616848,0.3268136361
11072.54896,-0.04101441711,0.07182837565,-0.2782725012,0.2903051548
11082.585959999999,-0.05767459631,0.04517573431,-0.1838037157,0.1978661465
11092.62196,-0.0680414173,0.009404168297,-0.05111635923,0.08562099644
11102.658959999999,-0.120948194,-0.05890582806,0.04754838824,0.1426857086
11112.69496,-0.136658493,-0.1023160139,0.1176886636,0.2073517107
11122.73196,-0.1408456841,-0.1131614752,0.1065403622,0.2097471692
11132.767960000001,-0.1587293932,-0.06399715405,0.09036696374,0.1935377072
11142.80396,-0.1529792413,-0.02084906054,0.0349283427,0.1582950433
11152.840960000001,-0.1331697518,0.04351204614,-0.02469337642,0.1422576669
11162.87696,-0.1265828633,0.1071863334,-0.09372385025,0.1905158562
11172.91396,-0.1061450905,0.127311938,-0.08039804578,0.1842252848
11182.94996,-0.077655994,0.1199855687,-0.03258360922,0.1465901828
11192.98696,-0.07274871826,0.08913990727,0.018497082,0.1165351497
11203.02296,-0.09743683219,0.04882642513,0.02424957275,0.111651233
11213.05996,-0.1197129697,0.06118028075,0.01097522378,0.1348876473
11223.09596,-0.1268509582,0.06995971974,-0.01678150892,0.1458325993
11233.13296,-0.1010623983,0.1191856787,-0.03051486433,0.159216806
11243.16896,-0.07278935641,0.1673612539,-0.02022025645,0.1836217266
11253.205960000001,-0.06118175626,0.1688599867,-0.002370461226,0.1796177093
11263.24196,-0.04985657662,0.1548612042,-0.01476480424,0.1633574922
11273.278960000001,-0.04918707043,0.1754885182,-0.07699905932,0.1978495465
11283.31496,-0.05964890867,0.1998160965,-0.09556046069,0.2293823585
11293.35096,-0.06905123144,0.1961130548,-0.07820358574,0.2221355524
11303.38796,-0.05867534727,0.1825338101,-0.07267153502,0.2050427765
11313.42396,-0.08444168776,0.1818136889,0.01342871547,0.200915272
11323.46096,-0.08768718481,0.1285581076,0.1104012787,0.1908000832
11333.49696,-0.05899372816,0.09431652951,0.2046274048,0.2329125211
11343.53396,-0.03230732828,0.04032137588,0.3210951698,0.3252255907
11353.569959999999,-0.0008990094066,-0.02680557344,0.3785300303,0.3794790255
11363.606960000001,0.09122182667,-0.0377763273,0.4641385299,0.474524022
11373.64296,0.1569685042,-0.08302790411,0.4387861723,0.4733561546
11383.67996,0.2026726806,-0.04186359728,0.3414697927,0.3992873597
11393.71596,0.2333913204,-0.01178105689,0.2267848438,0.3256403954
11403.75296,0.2731339681,0.04504664332,0.05155782402,0.281584044
11413.78896,0.2601984653,0.0781236068,-0.09822679102,0.2888858628
11423.82596,0.2055986273,0.09453641223,-0.2267480063,0.3203476037
11433.86196,0.1265805244,0.05604386725,-0.3426567775,0.3695635418
11443.89896,0.05074038327,0.04315084353,-0.4352947998,0.4403613795
11453.93496,-0.03464182913,0.02527872382,-0.4378523719,0.4399474626
11463.970959999999,-0.1052843803,-0.01090637738,-0.4100067616,0.4234492819
11474.007959999999,-0.1861639443,-0.01029295878,-0.3376843053,0.3857377985
11484.043959999999,-0.2327604058,0.007643937115,-0.2382623434,0.3331737994
11494.08096,-0.2484555021,0.01545559796,-0.1377533841,0.2845083599
11504.11696,-0.271435352,0.00227674589,-0.02317953229,0.2724327891
11514.15396,-0.2765481573,0.006005241224,0.1117940855,0.2983502368
11524.18996,-0.2725007147,-0.00629440431,0.2444276476,0.3661162847
11534.22696,-0.2341774786,-0.02625456473,0.3875511146,0.4535683631
11544.26296,-0.2130593821,-0.03870568056,0.5137656033,0.5575370169
11554.29996,-0.1835215876,-0.02782158655,0.5162810755,0.5486349995
11564.335959999999,-0.1549251947,0.00366319838,0.459694646,0.485112773
11574.37296,-0.0831196323,0.05202810918,0.3580858254,0.3712697884
11584.408959999999,0.006840365231,0.1021153356,0.2976466656,0.3147504883
11594.44596,0.1211622021,0.1142172448,0.2467729658,0.2976957421
11604.48196,0.1794814539,0.09917460641,0.1612153369,0.2608439758
11614.51896,0.2211761945,0.1217495823,0.1192679965,0.2792252224
11624.55496,0.2423170951,0.06999774034,0.0847097826,0.2660695501
11634.59196,0.2776538658,0.02802503767,0.04644677281,0.2829034723
11644.62796,0.309228538,-0.006587171657,-0.02483838737,0.3102944167
11654.66396,0.3140934214,-0.01942396617,-0.1465668923,0.3471510071
11664.70096,0.2878674898,0.03098785839,-0.2353457522,0.373116017
11674.73696,0.3109543437,0.08841138988,-0.3616467798,0.4850748097
11684.773959999999,0.2822193718,0.1376648445,-0.506029737,0.5955379736
11694.80996,0.197130982,0.1527586825,-0.5773084652,0.6288727241
11704.846959999999,0.1138414881,0.1114856266,-0.5978362852,0.6187060314
11714.88296,0.03509995848,0.06133345496,-0.534386394,0.5390386052
11724.91996,-0.0997485289,0.03836989506,-0.4166263944,0.4301157639
11734.955960000001,-0.1881151602,0.01074455112,-0.3621373612,0.4082232566
11744.99296,-0.2715979046,0.03315010392,-0.3070688689,0.4112853527
11755.028960000001,-0.3690999332,0.05919871875,-0.2343774533,0.441216545
11765.06596,-0.4242874163,0.03909129529,-0.1581414557,0.4544850504
11775.10196,-0.4114752898,0.04539685956,-0.09945002854,0.4257500407
11785.13896,-0.4034812689,0.02950878692,0.05272960603,0.4079807767
11795.17496,-0.3997677022,-0.01633569527,0.1954133624,0.4452723356
11805.211959999999,-0.3719644842,-0.0632332336,0.2928893709,0.4776402442
11815.24796,-0.3863957047,-0.09364773595,0.39455374,0.5601287288
11825.284959999999,-0.3490071461,-0.1014755406,0.4426190221,0.5727258263
11835.320960000001,-0.2717034468,-0.08715517955,0.4763925397,0.5553094995
11845.356960000001,-0.1856224921,-0.06831144903,0.4682391822,0.5083011857
11855.393960000001,-0.0869752863,-0.04205176799,0.4435843974,0.4539825649
11865.42996,-0.01080331564,0.01051754211,0.3828581393,0.3831549101
11875.466960000002,0.04885670274,0.05690028791,0.2756266361,0.2856477949
11885.50296,0.07759810656,0.1011031004,0.1253058314,0.1787312352
11895.53996,0.1607946298,0.1279975972,0.06561803877,0.2157406426
11905.57596,0.2512662587,0.1608343177,0.1189884996,0.3211863533
11915.61296,0.371018697,0.1749440876,0.20938353,0.4605450792
11925.64896,0.3960883418,0.1609016338,0.290430032,0.5168412849
11935.68596,0.3763519424,0.1003212819,0.2428863215,0.4590195087
11945.72196,0.2784093261,0.07842967199,0.07843338132,0.2996911103
11955.758960000001,0.1488341501,0.08352203038,-0.150011487,0.2272245146
11965.794960000001,0.0433486256,0.1049784978,-0.321271171,0.3407561498
11975.831960000001,-0.0358258903,0.110759841,-0.3878545851,0.4049474237
11985.86796,-0.1205005896,0.08641276589,-0.3120968896,0.3455315133
11995.90496,-0.1522948247,0.04439810945,-0.09339114368,0.1840837078
12005.94096,-0.1218919346,-0.01534620021,0.1109409767,0.1655326249
12015.97696,-0.2000718391,-0.08198929243,0.1903128362,0.2880450668
12026.01396,-0.2303738648,-0.1407293976,0.2679568434,0.3803652861
12036.04996,-0.2266477266,-0.2122789068,0.3563895482,0.4726997316
12046.08696,-0.2123156163,-0.2278348758,0.4541620106,0.5506811994
12056.12296,-0.1658501324,-0.2509294042,0.4935242969,0.5779602615
12066.15996,-0.09163668662,-0.2510547904,0.5645662129,0.6246285287
12076.19596,0.01596845359,-0.2253645186,0.5827399439,0.6250039999
12086.23296,0.115279026,-0.1853351015,0.5677669787,0.608274359
12096.26896,0.2561928302,-0.1576180933,0.4889979672,0.5741056014
12106.30596,0.3658547285,-0.1366909816,0.3970195109,0.556918844
12116.34196,0.3841559288,-0.1702633184,0.305096603,0.5192776833
12126.37896,0.4220146036,-0.2336473188,0.2180993897,0.5293909132
12136.41496,0.445443812,-0.2564934136,0.1258426058,0.5291931805
12146.45196,0.4730321449,-0.2704538603,0.06674245834,0.5489619808
12156.48796,0.504382284,-0.2315266433,-0.03657667279,0.5561869541
12166.52496,0.5512582424,-0.203100039,-0.1023058087,0.5963235315
12176.560959999999,0.5681970415,-0.1706285501,-0.1278815299,0.6068901595
12186.596959999999,0.606655933,-0.1339116172,-0.1729261404,0.6448776568
12196.63396,0.6773867771,-0.1194278448,-0.1978329402,0.7157190288
12206.66996,0.7279859501,-0.1417780957,-0.1477649868,0.7562400831
12216.70696,0.7274088299,-0.1411568291,-0.1344403517,0.7530757362
12226.74296,0.7001801008,-0.1200824406,-0.1923172617,0.7359741132
12236.77996,0.6283564121,-0.06841958597,-0.3123196685,0.7050224079
12246.81596,0.5213532427,0.002480827421,-0.4477610636,0.6872447368
12256.85296,0.4294624946,0.05978997275,-0.4965104699,0.6591930839
12266.888959999998,0.3810332233,0.1161775969,-0.4859001124,0.6283171735
12276.92596,0.321381391,0.1393745977,-0.4342820621,0.5579535701
12286.961959999999,0.3063081461,0.1370232861,-0.2601081258,0.4245660119
12296.998959999999,0.2757482582,0.04459751777,-0.1243860644,0.305774318
12307.034959999999,0.2191220677,-0.03381539829,-0.04181753218,0.22562506
12317.07196,0.2190504393,-0.148248186,0.1640085518,0.3112224682
12327.10796,0.152617591,-0.260337629,0.3086283213,0.431647137
12337.14496,0.08471285239,-0.318791513,0.3087353253,0.4517984033
12347.18096,0.0747262466,-0.2961350872,0.2731018084,0.4097128258
12357.21796,0.08064669862,-0.1945280939,0.1054498565,0.235509536
12367.25396,0.07133398443,-0.09720031232,-0.11691917,0.167947999
12377.28996,0.01239273503,-0.04239012077,-0.2920818704,0.2954019656
12387.326959999999,-0.0549141258,-0.05517958939,-0.4756481892,0.4819767092
12397.36296,-0.09985889509,-0.06994234711,-0.5711677194,0.5840344977
12407.399959999999,-0.1702669729,-0.05780718192,-0.606266216,0.6323695415
12417.43596,-0.2327770704,-0.02850605339,-0.6467499983,0.6879558997
12427.47296,-0.2895991427,-0.007660729587,-0.6706376284,0.7305348581
12437.508960000001,-0.3655712847,-0.02012056142,-0.6144885707,0.7152925309
12447.54596,-0.4191488832,-0.036024988,-0.5261909366,0.673691686
12457.581960000001,-0.47638947,-0.04814334244,-0.4237155586,0.6393743685
12467.61896,-0.5065004379,-0.05695568115,-0.245816946,0.5658733199
12477.65496,-0.5211640853,-0.07567875803,-0.1024502349,0.5365028693
12487.69196,-0.5440274294,-0.131679735,0.04559541821,0.5615908998
12497.72796,-0.5638180616,-0.2191515961,0.1442975879,0.6218842518
12507.764959999999,-0.5297659242,-0.2791573311,0.218386488,0.6373958018
12517.80096,-0.4468703865,-0.3137748943,0.2976829183,0.6219026825
12527.837959999999,-0.3244182886,-0.3235966086,0.3120512813,0.5543807295
12537.87396,-0.2116288608,-0.2748029096,0.2132584798,0.4071640862
12547.90996,-0.05546434879,-0.1917496432,0.1192633188,0.232525179
12557.946960000001,0.07106501251,-0.07486833394,-0.02335144043,0.1058337999
12567.98296,0.1515642151,-0.02263354853,-0.1821583092,0.2380454546
12578.019960000001,0.2113693906,-0.00412024051,-0.275870465,0.3475607992
12588.05596,0.1939565286,-0.006044559181,-0.3352536178,0.3873637308
12598.09296,0.12448459,-0.05201010615,-0.4466454148,0.4665764577
12608.12896,0.05004281044,-0.09055436701,-0.6877869272,0.6955251495
12618.16596,-0.03869424194,-0.07813502714,-0.8800691056,0.8843777233
12628.20196,-0.1459643367,-0.04200800523,-1.022541193,1.03376049
12638.23896,-0.2147660382,0.008652709723,-1.039604537,1.061591689
12648.27496,-0.264771865,0.04510863751,-0.9225584829,0.9608605955
12658.31196,-0.2932457587,0.01700501874,-0.728404026,0.7854009618
12668.347960000001,-0.280433486,-0.03052509695,-0.4940125394,0.568878819
12678.384960000001,-0.3038651794,-0.08825714216,-0.2513209301,0.4040861051
12688.42096,-0.3039702831,-0.1730783142,-0.07556064427,0.3578595351
12698.457960000002,-0.3124271111,-0.2088641511,0.04524984777,0.3785267257
12708.49396,-0.3035567388,-0.1973082988,0.1556347543,0.3940804933
12718.53096,-0.303297561,-0.1547605956,0.1960074395,0.3928856943
12728.56696,-0.3120723313,-0.09155877247,0.21113711,0.387751245
12738.60296,-0.3039737915,-0.007364129573,0.2057915854,0.3671572864
12748.64046,-0.3185044147,0.06622044817,0.1231107867,0.3478311023
12758.67646,-0.3225613591,0.1141672511,0.07733293533,0.3507996216
12768.71346,-0.3154713178,0.1350942897,0.1168741465,0.3625357714
12778.74946,-0.3068284021,0.1099177871,0.1672011316,0.3663083492
12788.786460000001,-0.3189983582,0.09967485398,0.1852807224,0.3821308351
12798.82246,-0.3224881227,0.09923010014,0.1645839179,0.3754105327
12808.859460000001,-0.3197196123,0.1230246133,0.1803176057,0.3871306303
12818.89546,-0.2769448909,0.1427814049,0.2020920521,0.3713841673
12828.93246,-0.2046566409,0.1674618443,0.2243722826,0.3468007081
12838.96846,-0.1371474664,0.213736709,0.2383804572,0.3483074083
12849.00546,-0.07867633313,0.2354382844,0.2368940949,0.3431325741
12859.04146,-0.05317384824,0.2216645832,0.2176134861,0.3151480206
12869.07846,-0.05813623399,0.2050636802,0.1316535687,0.2505266389
12879.11446,-0.04961771786,0.1841674856,0.02139730096,0.1919307822
12889.151460000001,-0.04276127279,0.1866002197,-0.03576800287,0.1947498869
12899.187460000001,-0.01705428153,0.1949585221,-0.1096148282,0.2243102415
12909.224460000001,-0.01199205458,0.2318658549,-0.1919892329,0.3012730483
12919.26046,-0.06646179199,0.2616650932,-0.3134511048,0.4136875462
12929.29646,-0.1267261201,0.2624432114,-0.3652802396,0.4672960541
12939.33346,-0.2413277462,0.2344807298,-0.3880498821,0.5136175666
12949.36946,-0.3482850149,0.2047401099,-0.3582249892,0.5399500969
12959.40646,-0.3991885355,0.1869259096,-0.2870977038,0.5260398028
12969.44246,-0.437171756,0.1524615435,-0.1252222162,0.4796293047
12979.47946,-0.4684452966,0.08387392312,0.02905773818,0.476781064
12989.51546,-0.4922148129,0.04001074255,0.1540179992,0.5172985846
12999.55246,-0.5191272077,0.03387036212,0.1753036183,0.5489732396
13009.588459999999,-0.5457527965,0.06262799196,0.1186049223,0.5619924447
13019.625460000001,-0.583447457,0.1123214313,0.06591507733,0.5978058517
13029.66146,-0.5839900786,0.1405384129,0.043661744,0.6022472958
13039.69846,-0.5541026205,0.1470571082,0.06627409637,0.577102905
13049.73446,-0.4841465324,0.1389402958,0.2080445176,0.5449631106
13059.77146,-0.3796085492,0.07474429987,0.3943292069,0.552435412
13069.80746,-0.2767434543,0.01652978629,0.5025640923,0.5739606608
13079.84446,-0.1990453604,-0.01795500856,0.5188737309,0.5560318214
13089.88046,-0.1471384576,-0.03901105139,0.4508583337,0.4758621911
13099.91746,-0.08407769859,-0.05404924951,0.3311248988,0.3458815973
13109.95346,-0.06367442429,-0.03752370246,0.2125474584,0.2250308482
13119.989459999999,-0.0132600233,-0.03081314541,0.1392122644,0.1431968321
13130.02646,0.04596847057,-0.02798769772,0.04820736945,0.07225207249
13140.06246,0.114086194,-0.01743413128,-0.014240309,0.1162858332
13150.09946,0.1885080931,-0.01851224821,-0.08153766811,0.2062192906
13160.13546,0.2468445942,-0.02883389946,-0.1220541948,0.2768770014
13170.17246,0.2907621539,-0.03199077465,-0.1193054187,0.3159110994
13180.20846,0.3053147042,-0.05040435109,-0.1224272472,0.3327853633
13190.24546,0.31134523,-0.03067226406,-0.1223763764,0.3359354366
13200.28146,0.317259981,-0.007062120885,-0.1370429474,0.3456653563
13210.31846,0.3240447977,0.04591098513,-0.1709766787,0.369250422
13220.354459999999,0.311763306,0.05024530683,-0.1837060672,0.3653339143
13230.39146,0.2642365524,0.03539769139,-0.1552546853,0.3085092697
13240.427459999999,0.2133502811,-0.003494880795,-0.1101369846,0.2401264501
13250.46446,0.1376744467,-0.04295697179,-0.1001271361,0.1755704932
13260.50046,0.07259639829,-0.06862051092,-0.1215063107,0.1572984269
13270.53746,0.01927359223,-0.07950539522,-0.1782740039,0.1961484124
13280.57346,-0.02389318496,-0.07636116464,-0.2849500215,0.2959703136
13290.61046,-0.04198242366,-0.08552188776,-0.3565257883,0.3690354386
13300.64646,-0.03505932033,-0.1166979991,-0.3920879692,0.4105856239
13310.68246,-0.02055179358,-0.1597886711,-0.4005722791,0.4317556559
13320.71946,0.00219650656,-0.1869355027,-0.3815822768,0.4249173341
13330.75546,-0.008532549441,-0.2206851198,-0.3919528985,0.4498908769
13340.792459999999,-0.01945310175,-0.2522002965,-0.3793498099,0.4559492198
13350.82846,-0.03814460367,-0.2899550371,-0.2926642531,0.4137406185
13360.865459999999,-0.07479465902,-0.317976338,-0.225232408,0.3967780617
13370.901460000001,-0.1185976133,-0.3124174632,-0.196537782,0.3876817831
13380.93846,-0.1011100531,-0.2605804712,-0.1893158859,0.3375884024
13390.974460000001,-0.07577114403,-0.1939316048,-0.1319985545,0.2465245465
13401.01146,-0.1073086864,-0.2173374427,-0.09735731006,0.2612071285
13411.047460000002,-0.102628575,-0.1779638091,-0.0854254818,0.2224887743
13421.08446,-0.05240450084,-0.1596668846,0.0002350580692,0.1680470202
13431.12046,-0.01678530961,-0.1145113232,0.07514841557,0.1379922973
13441.157459999999,0.02720563263,-0.03905220574,0.07806559145,0.09143007049
13451.19346,0.03907606512,0.02573132115,0.04987382591,0.06838448848
13461.230459999999,0.02172328323,0.1157575932,0.02024773836,0.1195060347
13471.26646,0.002384494543,0.176719485,0.01108398199,0.1770827966
13481.30346,0.006614370346,0.2169524035,0.07906897366,0.2310064888
13491.339460000001,0.02389932454,0.2328680494,0.2182157493,0.3200262792
13501.375460000001,0.03594283462,0.2230950863,0.3743866932,0.4372970397
13511.412460000001,0.03181674689,0.1958178435,0.4784548527,0.5179536459
13521.44846,0.03447898418,0.1589945644,0.5662046027,0.5891143556
13531.48546,0.05319592148,0.1393467687,0.5957090682,0.6140982185
13541.52146,0.0494370389,0.1255648265,0.576048975,0.5916442918
13551.55846,0.02166188747,0.09921504356,0.5556316674,0.564835739
13561.59446,-0.01675548881,0.06104529686,0.4344528008,0.4390404432
13571.63146,-0.03690645576,0.03409803808,0.2905528235,0.2948655727
13581.66746,-0.07601351112,0.002746108286,0.1325493622,0.1528231933
13591.70446,-0.07588574946,-0.02649442848,-0.01285218,0.08139889583
13601.74046,-0.09244477183,-0.032438379,-0.1258396822,0.1594801238
13611.777460000001,-0.07765219331,-0.06105677202,-0.1857216024,0.2103575674
13621.81346,-0.06214186907,-0.08355199736,-0.1913542253,0.2178508382
13631.850460000001,-0.0459108755,-0.1219338518,-0.1746727037,0.2179133455
13641.88646,0.01155000508,-0.1261749469,-0.08483608246,0.152481739
13651.92346,0.06757305533,-0.1001050629,-0.002797307968,0.1208096286
13661.95946,0.1222635251,-0.085973037,0.06903456688,0.164637493
13671.99646,0.1439055321,-0.0758724105,0.1312466025,0.2090241505
13682.03246,0.1854792354,-0.05919293549,0.1608890623,0.2525700709
13692.06946,0.226744498,-0.02415630966,0.1910408145,0.2974780454
13702.10546,0.2445255885,-0.004424624629,0.2002887708,0.3161137966
13712.141459999999,0.2489937383,0.01761817239,0.1869495177,0.3118627966
13722.178460000001,0.2510510811,0.02454789039,0.1112210584,0.2756798289
13732.21446,0.1952589959,0.01843985237,0.06208398163,0.2057195285
13742.25146,0.1328768063,0.01617602974,-0.006669334173,0.1340238397
13752.28679,0.09498509467,0.02632120471,-0.08981674075,0.1333492443
13762.32379,0.04353310525,0.01554219157,-0.1493601072,0.1563493927
13772.359789999999,0.01878359556,0.01301955655,-0.1688898075,0.1704291624
13782.39679,0.02540469021,0.02193963021,-0.1449337649,0.1487700974
13792.432789999999,0.03776131868,0.02523716748,-0.1076712137,0.1168585559
13802.46979,0.0284791562,0.03143061139,-0.0519261986,0.06704681775
13812.50579,-0.007582961619,0.01271593988,-0.01094423354,0.01841121076
13822.54279,-0.05939338535,-0.009012569301,-0.01158625782,0.06118040535
13832.57879,-0.1034006998,-0.02545837495,-0.02234221101,0.1088072055
13842.61579,-0.1445610049,-0.0366899626,0.01286621332,0.1496982864
13852.65179,-0.1641345593,-0.05065921661,0.04285892129,0.1770406646
13862.68879,-0.1781401026,-0.05697161481,0.08773279309,0.206583407
13872.72479,-0.1952870625,-0.06059831377,0.08747668505,0.2223991071
13882.76179,-0.2082304591,-0.07072671454,0.0961790961,0.240026271
13892.797789999999,-0.2052887249,-0.06353708781,0.1079512954,0.2404868069
13902.83379,-0.2155245683,-0.07325914364,0.06637817681,0.2371155921
13912.870789999999,-0.2292900833,-0.0524752887,0.01447244346,0.2356630006
13922.906790000001,-0.1931358719,-0.02756191079,-0.01458061695,0.1956366998
13932.94379,-0.1638746506,-0.005300976075,0.01739722073,0.1648807592
13942.979790000001,-0.09073183,0.006687752903,0.05449371099,0.1060497787
13953.01679,-0.01747791231,0.04549590591,0.05097485662,0.07052510816
13963.052790000002,0.04493760645,0.05791692685,0.05809501112,0.09353496248
13973.08979,0.07798519224,0.05070822358,0.06820894003,0.1153493548
13983.12579,0.09284618318,0.03636138562,0.04850323856,0.1108833993
13993.16279,0.1188148373,0.03250722997,0.01420171738,0.1239974772
14003.19879,0.1165373468,0.006924528591,0.007600795627,0.1169900611
14013.235789999999,0.1427740958,-0.01748529442,-0.04101529419,0.14957417
14023.27179,0.150473417,0.004409970045,-0.06466260374,0.1638381805
14033.30879,0.1556110731,0.01807984661,-0.1116940981,0.1923986966
14043.344790000001,0.1397110319,0.03160617404,-0.1477743423,0.2058042247
14053.38179,0.1012155953,0.01471203312,-0.1319623017,0.1669583473
14063.417790000001,0.03781072766,0.002623097487,-0.1066520441,0.1131865287
14073.45479,0.005520941019,-0.01312484298,-0.1029063177,0.1038867293
14083.490790000002,-0.02023458213,-0.0214428727,-0.06533620298,0.07168022407
14093.52779,-0.06362062991,-0.05994101364,-0.03868927181,0.09558958845
14103.56379,-0.08147744179,-0.09287289765,-0.03267190218,0.1277943732
14113.59979,-0.07402458072,-0.1084147969,-0.04287763238,0.138101043
14123.63679,-0.07231924027,-0.1004765072,-0.03660590887,0.1290952888
14133.67279,-0.0574450931,-0.0799009959,-0.08226798534,0.1282658539
14143.70979,-0.04700108886,-0.03270647384,-0.1350543094,0.1466917934
14153.74579,-0.04020136178,-0.0108930704,-0.14856664,0.1542947018
14163.782790000001,-0.03798438996,0.01888833381,-0.1872915798,0.192035723
14173.818790000001,-0.04186460227,0.01615183689,-0.2267392355,0.2311367727
14183.855790000001,-0.03225236446,0.01496931061,-0.3038569933,0.3059303314
14193.89179,-0.02468080491,0.009515320212,-0.3923651272,0.3932557393
14203.928790000002,-0.0287057358,-0.01224662773,-0.4979325128,0.4989095974
14213.96479,0.01081325591,-0.03550926358,-0.5415843165,0.5428548666
14224.00179,-0.002810171843,-0.06017903186,-0.5433782423,0.5467077163
14234.03779,-0.02665014714,-0.08056469142,-0.5615700996,0.5679453113
14244.07479,-0.1007238445,-0.1103352052,-0.6033607346,0.6215813112
14254.11079,-0.2375057137,-0.1580226841,-0.6739658636,0.7318538912
14264.14779,-0.3589500439,-0.1767876416,-0.7627014542,0.8612853839
14274.183790000001,-0.4559503815,-0.1829166931,-0.8412523645,0.9741944404
14284.22079,-0.4548031577,-0.1586114256,-0.8004727131,0.9342162817
14294.256790000001,-0.4650790545,-0.1592897757,-0.6661194849,0.8278809865
14304.29279,-0.4485019058,-0.2552300861,-0.4799324441,0.7047208719
14314.32979,-0.4198064026,-0.3969764607,-0.2040181249,0.612740664
14324.36579,-0.3073980671,-0.4122452219,-0.03095223606,0.5151676771
14334.40279,-0.3422670606,-0.2960972996,-0.03344022632,0.4538045839
14344.43879,-0.3181557745,-0.2233593987,-0.2781274903,0.4779826552
14354.47579,-0.2274485028,-0.08527082294,-0.5184924924,0.5725717417
14364.51179,-0.2142393503,0.08642447859,-0.7028932089,0.7398827966
14374.54879,-0.1007495722,0.1697306371,-0.8055972129,0.8294250026
14384.58479,-0.02635340095,0.2426534562,-0.8800252515,0.9132467601
14394.621790000001,-0.001274108291,0.2805798125,-0.9086508805,0.9509853191
14404.65779,-0.001163595915,0.2760622537,-0.8363711089,0.880754423
14414.69479,-0.02766434669,0.27156019,-0.7696701658,0.8166409352
14424.73079,-0.02923373938,0.2442988627,-0.7166493684,0.7577089567
14434.76779,-0.02446679682,0.1743000899,-0.5435963434,0.5713808975
14444.80379,0.02300850123,0.1118448101,-0.4313081682,0.4461674446
14454.84079,0.1452939534,0.1594263813,-0.3178739387,0.3841496386
14464.87679,0.2542153019,0.191776979,-0.1235902584,0.3415821736
14474.91379,0.3779178268,0.1539775072,0.1004306066,0.4202585671
14484.94979,0.4927360922,0.1154861636,0.2697987163,0.5735130843
14494.98679,0.6141845155,0.07689994901,0.5006847972,0.7961290645
14505.022789999999,0.7394190109,0.02750471771,0.701523791,1.01962376
14515.05879,0.8534569654,-0.02937378019,0.8435345328,1.20033417
14525.09579,0.9046171787,-0.08237425849,0.9567682028,1.319288881
14535.13179,0.8893477598,-0.1249640617,0.9975396681,1.342252154
14545.16879,0.7882675275,-0.1398146738,0.9046794516,1.208039216
14555.20479,0.6265078148,-0.09586246938,0.6992527324,0.943745749
14565.24179,0.4686578429,0.01794145033,0.5354131651,0.7117789872
14575.27779,0.3861223474,0.1142313512,0.4535661793,0.6065159089
14585.31479,0.3718586496,0.2070252018,0.4554957604,0.6233896672
14595.350789999999,0.4037642741,0.2460563895,0.5695421934,0.7402348586
14605.38779,0.4855530801,0.2368825467,0.8189060605,0.9810618076
14615.423789999999,0.5500744736,0.2198561856,1.056276703,1.211048778
14625.46079,0.56171628,0.1157856873,1.163841498,1.297481613
14635.49679,0.4956181848,0.05759595126,1.205739722,1.304899596
14645.53379,0.4515772489,0.01943292886,1.137771687,1.224264703
14655.56979,0.3620780119,-0.01542612433,0.9824158448,1.047129096
14665.60679,0.2642546788,0.01288229316,0.795004397,0.8378713983
14675.64279,0.1896570709,0.009063768983,0.5146707523,0.5485781072
14685.67979,0.1052902275,0.04046536356,0.2316099662,0.2576172628
14695.71579,0.0280549407,0.03500494123,0.03093060136,0.05448970277
14705.75279,-0.0725911358,0.01447770596,-0.08000452816,0.1089945021
14715.788789999999,-0.1785540855,-0.04370530576,-0.1064848137,0.2124399462
14725.82479,-0.2810364801,-0.1097639322,-0.1081156021,0.3204974374
14735.861789999999,-0.413082397,-0.1501117668,-0.1279616368,0.4577606249
14745.89779,-0.4600861171,-0.1545366472,-0.1211923152,0.5002483261
14755.93483,-0.4771325049,-0.1248015091,-0.0967620635,0.502587048
14765.97083,-0.4527174559,-0.08375230104,-0.07367901027,0.4662575891
14776.007829999999,-0.3992899847,-0.087323488,-0.01789364934,0.4091186455
14786.04383,-0.355411309,-0.08836078405,0.1179833633,0.3847660338
14796.080829999999,-0.3573905915,-0.1312080109,0.249750368,0.4553227683
14806.11683,-0.3878709573,-0.1990023834,0.3300928652,0.5468154421
14816.15383,-0.4116349187,-0.2633936763,0.3625846732,0.608512268
14826.189830000001,-0.4273893642,-0.2892474326,0.3624677289,0.6306414198
14836.22683,-0.3937020931,-0.2897540939,0.3469310921,0.5994330285
14846.26283,-0.3312298563,-0.2388692844,0.3546903473,0.5409038687
14856.29983,-0.2801801553,-0.1304678996,0.232744326,0.3869014261
14866.33583,-0.2232022548,-0.007574190795,0.06238160491,0.2318794504
14876.372829999998,-0.1660530308,0.06969281718,-0.005837860107,0.1801798502
14886.40883,-0.105902431,0.09891500831,-0.06151329339,0.1574274087
14896.445829999999,-0.05212500393,0.107095263,-0.1216057134,0.1702185681
14906.48183,-0.04301474959,0.1083339956,-0.1981972218,0.2299318638
14916.518829999999,-0.04444585562,0.08543790713,-0.2320046532,0.2511995804
14926.554830000001,-0.04497268975,0.05202443182,-0.2860235703,0.2941743821
14936.590830000001,-0.08159350902,0.02285691217,-0.3265231401,0.3373385542
14946.627830000001,-0.09652963668,0.005904226005,-0.3252081013,0.3392832736
14956.66383,-0.1089616942,-0.0007520981133,-0.2877941072,0.3077314813
14966.70083,-0.1306800073,-0.04095843002,-0.2269555825,0.265072997
14976.73683,-0.1197825515,-0.07837183937,-0.1361699581,0.1975658431
14986.77383,-0.1105451202,-0.100615671,-0.110617041,0.1859566256
14996.80983,-0.1115993732,-0.1251501493,-0.04907801986,0.1747158608
15006.84683,-0.08823828489,-0.1387953579,-0.03276311874,0.1677008296
15016.88283,-0.0952666381,-0.1383826907,-0.007690842748,0.1681804105
15026.91983,-0.07781123757,-0.1521457207,0.06998883247,0.1846654968
15036.95583,-0.04464787692,-0.1322377056,0.09460210204,0.1686113917
15046.992830000001,-0.04872601748,-0.0803993614,0.02455655158,0.09716638471
15057.02883,-0.03533326238,-0.04849505246,-0.04979839683,0.07797493103
15067.065830000001,-0.03330866396,-0.01381521642,-0.05776756704,0.06809859838
15077.10183,-0.02653232574,-0.002167124301,-0.05323772907,0.05952240363
15087.13883,-0.05875282288,-0.004764749855,-0.0942348969,0.1111522057
15097.17483,-0.1121642143,-0.01606551737,-0.1357290781,0.1768086379
15107.21183,-0.1514054632,-0.05923229456,-0.09114347398,0.1863845805
15117.24783,-0.1923514679,-0.09245208085,-0.1221974516,0.2459241583
15127.28483,-0.2091677678,-0.07423654228,-0.2734152192,0.3521620385
15137.32083,-0.1820483816,-0.02383208156,-0.3571251279,0.401556893
15147.356829999999,-0.1578219053,0.0007063436508,-0.3322914183,0.3678666054
15157.39383,-0.09977630317,-0.02411362499,-0.2925654352,0.3100504982
15167.42983,-0.06601184875,-0.05745210975,-0.1939153057,0.2127473969
15177.46683,-0.000521863997,-0.06311806172,-0.07468356192,0.09778443884
15187.50283,0.05266616374,-0.09035790056,0.06530638218,0.1233012512
15197.53983,0.07786064655,-0.1026005083,0.1466779894,0.1952013759
15207.57583,0.1012044856,-0.1177889434,0.1788183796,0.2368387552
15217.61283,0.1110567516,-0.1204286689,0.1782529539,0.2420966376
15227.64883,0.1651525596,-0.05119646609,0.1559499192,0.232845063
15237.68583,0.2303592467,0.02424898803,0.152319383,0.2772266048
15247.72183,0.2289658552,0.04407777339,0.1942298859,0.3034690455
15257.75883,0.2160350302,0.05625810832,0.2278829509,0.3190090098
15267.794829999999,0.1978595451,0.06508214146,0.2002624583,0.2889448683
15277.831830000001,0.1747346842,0.07061068386,0.1837259477,0.2631982189
15287.86783,0.1518548217,0.0710904479,0.1580900002,0.2304477963
15297.90483,0.1090102261,-0.00276456356,0.1214548552,0.1632242447
15307.94083,0.04262123197,-0.06816303939,0.09421618581,0.1238525697
15317.97783,0.007464847863,-0.08180751711,0.06804521799,0.1066693278
15328.01383,0.008935422599,-0.06804024786,0.04105154693,0.07996590906
15338.05083,0.02402503967,-0.05659052253,-0.01460517526,0.06319019636
15348.08683,-0.002640017867,-0.06924565136,-0.04048144341,0.08025382974
15358.12383,-0.03099901378,-0.09031053811,-0.07379536986,0.120675966
15368.15983,-0.05575787902,-0.1022999614,-0.1386877692,0.1811312245
15378.195829999999,-0.0634305954,-0.07541300207,-0.1837692171,0.2085226282
15388.232829999999,-0.08446653843,-0.05656508714,-0.238456471,0.2592213219
15398.268829999999,-0.1267591569,-0.04177133918,-0.3286427557,0.3547094438
15408.30583,-0.1591655955,-0.01383421987,-0.4006553096,0.4313348461
15418.34183,-0.1618573612,0.005440541804,-0.3684254569,0.4024484093
15428.37883,-0.142275036,-0.02028486818,-0.318217755,0.3491650059
15438.41483,-0.1078021914,-0.02568272531,-0.2662868786,0.2884261024
15448.45183,-0.07756097674,-0.02600198328,-0.2312573791,0.2452993755
15458.48783,-0.02889693975,-0.02041379929,-0.2307416546,0.2334383591
15468.52483,-0.005882006586,-0.0262844038,-0.2084251714,0.2101583211
15478.560829999999,0.007293232083,-0.06128612906,-0.06885037959,0.09246380707
15488.59783,0.0159675765,-0.08399817646,0.01429001033,0.08668830107
15498.633829999999,0.02976174295,-0.08503196418,0.04418331563,0.1003412261
15508.67083,-0.002584176958,-0.06469768703,0.04070480704,0.07648104336
15518.70683,-0.01245398462,0.002960152924,0.0004338634014,0.01280829714
15528.74383,-0.002013196349,0.06838698775,0.04468559146,0.08171679837
15538.77983,0.001200433373,0.133211267,0.1278528786,0.1846430103
15548.81683,0.008585759103,0.1540396339,0.2330349326,0.2794766607
15558.85283,0.05312107712,0.1721677566,0.3587828135,0.4014831161
15568.88983,0.09337214023,0.1884066439,0.4117504013,0.4623351738
15578.92583,0.1166463974,0.1783710676,0.4033491218,0.4561941844
15588.96183,0.1355030832,0.1771115774,0.3438537025,0.4098352903
15598.998829999999,0.132319859,0.1652487463,0.3315868288,0.3934024889
15609.03483,0.1017172864,0.1119227242,0.2863486755,0.3238343195
15619.071829999999,0.08615404487,0.08219021738,0.2284606558,0.257627682
15629.10783,0.09203663617,0.08371546358,0.1713011992,0.2117147186
15639.14483,0.08138008565,0.05507346243,0.08149556816,0.1276610051
15649.180830000001,0.06700061291,0.04406081647,0.08010743916,0.1133474282
15659.21783,0.0414953506,0.0285566318,-0.0002578622103,0.05037272907
15669.253830000001,0.02433757335,-0.001370294988,-0.06733653545,0.07161287728
15679.29083,-0.01008381575,-0.03863021493,-0.04814129591,0.06254247531
15689.32683,-0.04123631895,-0.0371096465,-0.06034385026,0.08196914131
15699.36383,-0.02129877537,-0.03587529927,-0.1575619966,0.1629922013
15709.39983,-0.02816574544,-0.02473927706,-0.2057073855,0.2090953599
15719.436829999999,-0.03415212482,-0.01719198346,-0.2127866095,0.2161945261
15729.47283,-0.06576568097,0.00100484401,-0.2155599439,0.2253713024
15739.509829999999,-0.06851767302,-0.01331674129,-0.1664871866,0.1805269797
15749.546040000001,-0.08364851296,-0.04166813582,-0.08285972357,0.124896121
15759.583040000001,-0.1030212155,-0.04223063797,-0.06497016728,0.1289105126
15769.61904,-0.129298895,-0.05975298911,-0.07760132253,0.1622053921
15779.656040000002,-0.1295351225,-0.06150189131,-0.03937924325,0.1487029099
15789.69204,-0.1106252271,-0.04313081682,-0.01195170879,0.1193358771
15799.72804,-0.09270058751,-0.03610714138,-0.02354966104,0.1022336105
15809.76504,-0.106271975,-0.01034723282,-0.05139410198,0.1184995849
15819.80104,-0.1259098488,0.01434263527,-0.07610268116,0.1478195498
15829.83804,-0.1171130052,0.04887102842,-0.1004048789,0.1618177157
15839.87404,-0.08673204213,0.06856357366,-0.07409065425,0.1330895782
15849.91104,-0.05929661393,0.08247205317,-0.03340631247,0.1069285261
15859.94704,-0.0263656801,0.05986437857,-0.003928744197,0.06553112192
15869.984040000001,-0.02708927304,0.04103956014,0.03249648571,0.05894146073
15880.02004,-0.01998110533,-0.01875114352,0.109424209,0.1128029586
15890.05704,-0.02521933347,-0.04189003766,0.1239317358,0.1332286199
15900.09304,-0.01899146408,-0.01805824846,0.08822629809,0.09203616529
15910.13004,0.02290325135,0.01062906861,0.03787650883,0.04552104945
15920.16604,0.06872817278,0.08166630685,-0.01052264929,0.1072551796
15930.20304,0.1092797828,0.1513861674,-0.02222058892,0.1880255227
15940.23904,0.1549322113,0.1639015478,0.0002952843904,0.2255388984
15950.27604,0.1656782243,0.1749676958,0.08157976806,0.2543977734
15960.31204,0.2044285995,0.1417061019,0.2041602123,0.3217966188
15970.349040000001,0.2251876768,0.09646297842,0.3287673014,0.4100030908
15980.38504,0.2347598612,0.08546962827,0.3860331774,0.4598248186
15990.42204,0.2364722183,0.07405410916,0.4374442363,0.502753002
16000.458040000001,0.2186186224,0.05813331038,0.4127040821,0.4706359987
16010.495039999998,0.1833426628,0.04399064988,0.4482265019,0.4862681424
16020.531040000002,0.146173667,0.04161200255,0.454837364,0.4795574286
16030.567040000002,0.1110202065,0.03305928022,0.4562459582,0.4707215489
16040.604040000002,0.06842674881,0.01563048452,0.4824479163,0.4875269469
16050.64004,0.02744273722,-0.01875552893,0.5191877264,0.5202506789
16060.677040000002,0.008791873455,-0.06080314904,0.544806717,0.548259682
16070.71304,0.01808836162,-0.09057015449,0.5387349683,0.5465944637
16080.75004,0.02882238775,-0.1049176137,0.5230895734,0.5342856329
16090.78604,0.1306411234,-0.09792200491,0.595373438,0.6173535072
16100.823040000001,0.1501433417,-0.1278020078,0.6046032679,0.6359414185
16110.859040000001,0.2391683695,-0.1095186415,0.6465418375,0.6980058663
16120.896040000001,0.2535156825,-0.1271754786,0.6047792691,0.6679833591
16130.932040000002,0.2542214414,-0.09822152853,0.3470626545,0.4412805186
16140.969040000002,0.296668134,-0.0204032743,0.04381026328,0.3005787992
16151.005040000002,0.2995119274,0.1048907165,-0.2532791626,0.4060292985
16161.042040000002,0.3211437017,0.1894933489,-0.618261779,0.7220032089
16171.07804,0.3982015255,0.2979189996,-0.8619813287,0.9951542576
16181.115040000002,0.4326989284,0.3924404101,-1.082583911,1.230132417
16191.15104,0.4480195105,0.4875336783,-1.195427572,1.366549542
16201.188040000001,0.5198607409,0.5664554483,-1.238578854,1.45780813
16211.224040000001,0.5920761931,0.572707876,-1.251246262,1.498053984
16221.261040000001,0.6092292926,0.5269958058,-1.088539301,1.354179722
16231.297040000001,0.6181316784,0.3994675939,-0.772960394,1.067299818
16241.334040000002,0.5677783808,0.2379493712,-0.4778929353,0.7793419343
16251.370040000002,0.5307222363,0.05599951521,-0.2096647811,0.5733771519
16261.407040000002,0.3991274321,-0.1145911011,0.09252692521,0.4254351412
16271.443040000002,0.3104058748,-0.2573355223,0.2327817482,0.4655756872
16281.47904,0.3364993671,-0.3258005704,0.3203484803,0.5674513059
16291.51604,0.3498196167,-0.3295115058,0.4214521015,0.6391975207
16301.55204,0.3961740035,-0.416207149,0.6613504958,0.8761088461
16311.58904,0.3895034999,-0.5253556618,0.9840787929,1.181576328
16321.62504,0.3230595419,-0.640045727,1.163082529,1.366304128
16331.662040000001,0.2037870137,-0.712747229,1.173911573,1.388382563
16341.698040000001,0.03206466883,-0.7965588793,1.047933896,1.316700286
16351.735040000001,-0.4470696303,-0.703595898,0.7527798986,1.123207914
16361.771040000001,-0.2246563111,-0.8016496114,0.3550078511,0.905065264
16371.808040000002,-0.1472900467,-0.8069435343,0.2659559262,0.8623136205
16381.84404,-0.263613093,-0.6037044047,0.3649516261,0.7530873525
16391.88104,-0.08523807853,-0.6738183676,0.46802342,0.8248288575
16401.91704,0.02547076374,-0.665607415,0.6190102226,0.9093160321
16411.95404,0.1463897216,-0.6657351767,0.6396970868,0.9347971111
16421.99004,0.1582063597,-0.5913493842,0.5663461053,0.8339491936
16432.02704,0.199419436,-0.4416811287,0.402893039,0.630216734
16442.06304,0.1602960084,-0.348298025,0.1658439928,0.4177446044
16452.10004,0.1818769851,-0.3133243664,-0.06679391384,0.3683922138
16462.13604,0.120018779,-0.2158831488,-0.2579388088,0.3571308868
16472.17304,0.1640653429,-0.1167251886,-0.4110686159,0.4577331246
16482.20904,0.2686006218,-0.09618275061,-0.4604588771,0.5416823728
16492.24604,0.3855439847,-0.09598584563,-0.3950384742,0.5602792543
16502.282040000002,0.6592863556,-0.1305838206,-0.2413830024,0.7141263101
16512.318040000002,0.915233822,-0.289270383,-0.07394915164,0.9627038903
16522.355040000002,0.911997242,-0.4596390975,0.06577474415,1.023393075
16532.39104,0.724426823,-0.5752365044,-0.06204129696,0.9271140062
16542.428040000003,0.5661174061,-0.6870123173,-0.2631428307,0.9282882047
16552.46404,0.5415318377,-0.64009192,-0.5180247152,0.9855577116
16562.50104,0.6917753861,-0.548555367,-0.7132714319,1.134998815
16572.53704,0.9443086633,-0.562849178,-0.8591594625,1.39523225
16582.57404,1.085162241,-0.6551844607,-0.7585119241,1.477221753
16592.61004,1.168066696,-0.9175164288,-0.3612824982,1.528640326
16602.64704,1.195560596,-1.236173894,0.01401811481,1.719792878
16612.68304,1.394621744,-1.399686164,0.3073717546,1.999642108
16622.72004,1.740368044,-1.439156916,0.583384307,2.332464535
16632.75604,2.042171495,-1.464930127,0.7341389751,2.618290421
16642.79304,2.307929786,-1.38322479,0.7117341989,2.783238453
16652.82904,2.542407957,-1.221064251,0.533178944,2.870386021
16662.86604,2.715641369,-1.096991451,0.07428887486,2.929781071
16672.90204,2.704961137,-1.055658653,-0.6172665828,2.968543073
16682.93904,2.570986516,-1.083433219,-1.347702516,3.098403021
16692.97504,3.238255564,-0.9588157515,-1.33255355,3.63060955
16703.01204,4.928449674,-0.3902602758,-0.2040496999,4.948086049
16713.04804,5.628316948,0.1376096888,0.3532601184,5.641070892
16723.08504,4.86432209,0.05054713279,0.2188150889,4.869503512
16733.12104,3.485364452,-0.5306746546,-0.687472347,3.591935297
16743.158040000002,2.238161686,-1.09256869,-1.543054483,2.929861978
16753.19396,1.480793623,-1.30737427,-1.895142235,2.737433346
16763.23096,0.913118007,-0.9999642891,-1.526739582,2.040746634
16773.26696,1.010867373,-0.4236276311,-0.1822150272,1.111087545
16783.30296,1.743993756,-0.8169995758,0.5695918947,2.008341967
16793.33996,1.16892112,-0.8043304136,0.4651091677,1.493201439
16803.37596,0.7386358494,-0.9267580993,1.223377263,1.703266104
16813.41296,1.404540961,-0.6554314325,1.649256291,2.263265779
16823.44896,1.641314603,0.2109100553,0.9099583179,1.888496973
16833.48596,1.509102333,0.9352399973,-1.099206961,2.088137842
16843.521960000002,1.791577959,1.197866007,-2.478793175,3.284668957
16853.558960000002,1.792367187,1.510886611,-2.769686306,3.628570065
16863.594960000002,2.082774707,2.164798571,-1.846624378,3.526233816
16873.631960000002,2.218208208,2.26780473,-0.4327986234,3.201671532
16883.66796,1.430785311,1.388390951,0.4187729073,2.037190906
16893.70496,-0.06852205843,0.3863338339,0.3990397239,0.559626487
16903.74096,-1.289040471,-0.05840505973,-0.264143874,1.317121283
16913.77796,-1.908050548,-0.1574006865,-0.2709640664,1.93361149
16923.81396,-1.551776482,0.1944957881,0.3045329314,1.593291928
16933.85096,-1.100475807,0.4447262125,0.7565145153,1.407530681
16943.88696,-0.7066146693,0.4436830692,0.5954395115,1.025040081
16953.92396,-0.4297822642,0.4351477423,0.4032678455,0.7325921836
16963.95996,-0.6520369776,0.6165099531,0.4438410902,1.001115206
16973.99696,-1.1433511,1.045953371,0.7673499906,1.729189464
16984.03296,-1.969893039,1.515824877,0.8851474124,2.63850139
16994.06996,-2.242138377,1.585861072,1.018800144,2.929179676
17004.10596,-2.347979266,1.556299596,1.001243879,2.989575952
17014.14296,-2.156290872,1.801644525,0.4156493247,2.840471384
17024.17896,-2.298907093,2.229830427,-0.13823461,3.205655372
17034.21496,-2.564117207,2.97973905,-0.5041843557,3.9632996
17044.25196,-2.556202708,4.037090472,-0.6079016823,4.816826364
17054.28796,-2.740816556,4.864707422,-0.5404657441,5.609773339
17064.32496,-3.086890446,5.632135765,-0.682281189,6.45874241
17074.360959999998,-2.70740732,5.742073359,-0.7575254989,6.393379837
17084.397960000002,-1.487483715,4.942827977,-0.3389642608,5.172915327
17094.43396,-0.9758730298,4.028461736,-0.315023421,4.156930584
17104.47096,-1.374214815,3.34342797,-1.073678602,3.770910061
17114.50696,-1.764746694,3.008410287,-1.442297017,3.774266026
17124.54396,-1.989105236,2.791813047,-1.833824823,3.887630797
17134.57996,-1.842688032,2.479629326,-2.502065093,3.975473621
17144.61696,-1.355874585,2.26982275,-2.610878853,3.715801339
17154.65296,-0.7646515737,2.242891206,-2.285985916,3.292565049
17164.68996,-0.08606838316,2.356232319,-2.142496998,3.185832998
17174.72596,0.4088613651,2.259065482,-1.814970476,2.926544429
17184.76296,0.3496579412,1.671620576,-1.413753249,2.217041784
17194.79896,0.3970810528,1.276323801,-0.776872766,1.546029463
17204.83596,0.4600653595,0.9168556935,-0.9567904222,1.402758857
17214.87196,-0.02947610646,0.7683706221,-0.6317665082,0.9951839904
17224.90896,-0.1492745917,0.3287846969,-0.4160206228,0.5508678964
17234.94496,-0.1216617005,-0.3005602235,-0.02396832168,0.3251345841
17244.98196,0.3242226993,-0.624083413,0.3114735764,0.769165947
17255.01796,0.7178386921,-0.783901777,0.5216441417,1.184021535
17265.05496,1.082876711,-0.8540644911,0.7894442797,1.589109938
17275.09096,1.122358134,-0.936205738,0.9105816311,1.722012739
17285.12796,0.9314759253,-0.971567798,0.8738026446,1.604718806
17295.16396,0.6549217746,-0.8808908587,0.7072417831,1.305787952
17305.199959999998,0.3444182512,-0.7247964402,0.3842421752,0.8897167306
17315.23696,0.3310795829,-0.6427526224,0.3725378036,0.8133443545
17325.27296,0.4014455608,-0.6104121112,0.4471588004,0.8565701819
17335.30996,0.6673848224,-0.6918387553,0.6672585225,1.170161228
17345.34596,0.7693164092,-0.8095577513,0.8042693102,1.376256013
17355.38296,0.5564610949,-0.9151662136,0.8405033362,1.36147861
17365.41896,0.6325500351,-0.9069356728,0.9000700915,1.425755249
17375.45596,0.6093105689,-0.9247337202,0.8391690016,1.389459044
17385.49196,0.5511635175,-0.9182656033,0.7947623223,1.333656661
17395.52896,0.6177331907,-0.8487345348,0.8525871921,1.352349631
17405.56496,0.7363579935,-0.8842805627,0.8987088597,1.460086581
17415.60196,0.55535831,-0.7234306037,1.130885421,1.452816756
17425.63796,0.3583243918,-0.3359776492,1.411421964,1.494452847
17435.67496,0.6572018963,-0.116452416,1.76421489,1.886247512
17445.71096,0.6172560579,0.1626831342,1.893583367,1.998281464
17455.74796,0.02476178885,0.5002107342,1.881728137,1.947235144
17465.78396,-0.3449886471,0.7903332026,1.845115796,2.036687516
17475.82096,-0.7447124952,0.7622406936,1.791072906,2.084118454
17485.85696,-1.285606256,0.6990784854,1.730417984,2.266239301
17495.89396,-1.44408071,0.809492628,1.349371896,2.135755587
17505.92996,-1.534809324,1.005056264,0.8950689679,2.041305027
17515.96696,-1.604085089,1.131288002,0.1484608054,1.968487268
17526.002959999998,-0.7335893369,1.636520179,-0.004627486467,1.793424942
17536.039960000002,0.1913042316,1.974456645,0.03126272321,1.983949019
17546.07596,0.3019408607,2.107186102,-0.3882147735,2.163818907
17556.11296,-0.2384506238,2.423136452,-0.5485115129,2.49585934
17566.14896,-0.4258652875,2.4898181,-0.5219382566,2.579336146
17576.18596,-0.571106616,2.005991995,-0.213146798,2.096568198
17586.22196,-0.5785141611,1.448212937,0.1588659257,1.567557887
17596.25896,-0.3659658256,1.057620686,0.3074448448,1.160609682
17606.29496,-0.1923725179,0.7408986488,0.1649347508,0.7830335021
17616.33096,-0.3345493206,0.4091647625,-0.2822427607,0.5991661095
17626.36796,-0.4946408227,0.3764867207,-0.7483325064,0.972837774
17636.40396,-0.2943850887,0.5184138474,-0.7857207727,0.9862923655
17646.44096,-0.0908227542,0.6969641322,-0.7951821524,1.061283388
17656.47696,-0.2522711027,0.9219910106,-1.018175077,1.396563146
17666.51396,-0.3906536472,1.091404436,-1.427692426,1.839043115
17676.54996,-0.9164531127,1.550811692,-1.481451727,2.332295528
17686.58696,-1.409935017,1.561749493,-1.433396385,2.545899336
17696.62296,-1.129530914,1.162390219,-1.403100207,2.14375402
17706.65996,-0.3947388044,0.7441649035,-0.9224801302,1.249227649
17716.69596,0.4922656837,0.5377491277,-0.588756144,0.937087736
