"Time (s)","Linear Acceleration x (m/s^2)","Linear Acceleration y (m/s^2)","Linear Acceleration z (m/s^2)","Absolute acceleration (m/s^2)"
3.314250149E-3,2.265555233E-1,8.243141502E-2,-2.518103421E-2,2.423972521E-1
1.330225030E-2,2.605623083E-1,1.270713982E-1,6.560459018E-2,2.972268813E-1
2.329024998E-2,1.059237733E-2,5.386104226E-2,7.686223447E-2,9.445111656E-2
3.327825014E-2,1.110795557E-2,4.301504195E-3,3.658076584E-2,3.847131457E-2
4.326625029E-2,9.063564330E-2,-3.488916636E-2,3.832849860E-3,9.719446746E-2
5.325425044E-2,1.058287561E-2,-1.087050015E-1,3.571479321E-2,1.149100564E-1
6.324125035E-2,1.702387601E-2,-1.326902801E-1,1.182236838E-1,1.785311239E-1
7.322925003E-2,9.587409072E-2,-1.453462860E-1,1.173325682E-1,2.099626531E-1
8.321725018E-2,7.196913823E-2,-1.175977394E-1,8.508985162E-2,1.620156413E-1
9.320525033E-2,3.594758548E-2,-1.044225007E-1,8.348479092E-2,1.384413156E-1
1.031932500E-1,2.274859250E-3,-7.405264735E-2,-1.048212808E-1,1.283607046E-1
1.131812502E-1,3.510639042E-2,-3.700176537E-2,-3.964166629E-1,3.996845756E-1
1.231692503E-1,8.491187699E-2,6.229068071E-2,-2.773234981E-1,2.966453748E-1
1.331572500E-1,-3.659574933E-2,1.411213803E-1,-1.265869564E-1,1.930770581E-1
1.431452502E-1,-2.185858049E-1,1.522793296E-1,9.360632122E-2,2.823665910E-1
1.531332503E-1,-2.844849486E-1,4.622107029E-2,3.780914891E-1,4.754169196E-1
1.631202502E-1,-1.707617205E-1,-6.331803650E-2,1.301145816E-1,2.238270387E-1
1.731082504E-1,-2.244117513E-2,-1.019742715E-1,2.314795732E-2,1.069494569E-1
1.830962501E-1,7.045675591E-3,-9.093735963E-2,2.497111917E-2,9.456638786E-2
1.930842502E-1,1.864004642E-2,-7.950868428E-2,9.832093120E-3,8.225419297E-2
2.030722504E-1,4.393173918E-2,-5.448903322E-2,-7.901927233E-3,7.043786555E-2
2.130602500E-1,7.797400944E-2,-4.901106924E-2,4.809217930E-2,1.038984541E-1
2.230482502E-1,1.038920121E-1,-6.428311944E-2,5.127306461E-2,1.324945160E-1
2.330362503E-1,7.263338193E-2,-6.984674513E-2,6.249679506E-2,1.185749778E-1
2.430242500E-1,-6.428092673E-2,-4.074661463E-2,1.327195162E-1,1.529927911E-1
2.530122502E-1,-1.047002435E-1,-2.719306111E-2,5.534740448E-2,1.215110643E-1
2.629992501E-1,-6.429876074E-2,-4.093050957E-5,-3.319230437E-2,7.236063417E-2
2.729872502E-1,1.544286199E-2,-4.727239966E-2,-2.367011368E-2,5.507663786E-2
2.829752504E-1,-2.523314752E-2,-6.273857743E-2,1.435427123E-1,1.586737253E-1
2.929632501E-1,-8.891020305E-2,-5.605316341E-2,1.888311517E-1,2.161115110E-1
3.029512502E-1,-8.646102369E-2,-4.310011894E-2,1.996221882E-1,2.217704825E-1
3.129392504E-1,-3.795778513E-2,-3.911787271E-2,1.471925443E-1,1.569606528E-1
3.229272501E-1,2.374773547E-3,-4.504344106E-2,6.211964965E-2,7.676849617E-2
3.329152502E-1,7.896518558E-2,-6.496168882E-2,1.373803318E-2,1.031709993E-1
3.429032504E-1,6.576685041E-2,-4.945984304E-2,2.488282621E-2,8.596923710E-2
3.528912500E-1,1.052454963E-2,-8.136926830E-2,2.337073624E-2,8.531069851E-2
3.628792502E-1,2.106349804E-2,-1.038222840E-1,1.711889327E-2,1.073116681E-1
3.728662501E-1,3.749541655E-2,-7.010109901E-2,5.570993185E-2,9.707557289E-2
3.828542503E-1,4.932206802E-2,-8.043137491E-2,6.113848686E-2,1.124268075E-1
3.928422504E-1,1.869464479E-2,-1.119352958E-1,9.551368296E-2,1.483302525E-1
4.028302501E-1,-7.980521120E-2,-1.341953534E-1,1.167846841E-1,1.949767346E-1
4.128182502E-1,-8.866948050E-2,-1.653276837E-1,3.579139173E-2,1.909883334E-1
4.228062504E-1,1.691212110E-2,-2.171550643E-1,2.928987265E-2,2.197731523E-1
4.327942501E-1,1.725663905E-1,-3.094279280E-1,9.301341355E-2,3.663008284E-1
4.427822502E-1,3.203622213E-1,-2.234338045E-1,7.084252596E-2,3.969550117E-1
4.527702504E-1,5.659881826E-1,2.719811895E-1,2.303639245E-1,6.688676462E-1
4.627582501E-1,1.091134003E0,1.802401301E0,6.464681625E-2,2.107938109E0
4.727452500E-1,1.023215084E0,4.432873589E-1,9.617810208E-1,1.472581245E0
4.827332501E-1,5.541037899E-1,-5.608251643E-1,4.167871928E-1,8.917776848E-1
4.927212503E-1,-9.134879896E-1,-1.054367003E-1,-5.892496490E-1,1.092150335E0
5.027092504E-1,-1.296730145E0,9.683339953E-2,-3.300232834E-1,1.341566675E0
5.126972501E-1,-1.318567303E0,-7.136938933E-1,4.085145521E-1,1.553982897E0
5.226852503E-1,-1.516332415E0,-1.112481602E0,3.339286387E-2,1.880955712E0
5.326732504E-1,-9.965202060E-1,-1.009231176E0,-3.105789524E-1,1.451915760E0
5.426612501E-1,-8.119640999E-2,-8.089529300E-1,1.955993038E-1,8.362157542E-1
5.526492503E-1,3.508952120E-1,2.947639883E-1,2.864094865E-1,5.404106333E-1
5.626372504E-1,-4.684973368E-1,8.528646424E-1,-4.495637602E-1,1.071902714E0
5.726242503E-1,-2.494360802E-1,5.539774901E-1,-9.458584678E-1,1.124169764E0
5.826122500E-1,1.660010637E-1,4.127549529E-1,-1.043704020E0,1.134566475E0
5.926002502E-1,5.522690798E-1,3.458566663E-1,-5.871639472E-1,8.771427883E-1
6.025882503E-1,7.634535523E-1,3.477704599E-1,-5.980000073E-1,1.030247363E0
6.125762500E-1,6.430585780E-1,1.570123583E-2,-6.745780671E-1,9.321085946E-1
6.225642501E-1,6.536989756E-2,-3.516369313E-1,-4.211632490E-1,5.525398061E-1
6.325522503E-1,-2.440477978E-1,-5.990276554E-1,3.966768640E-1,7.587792789E-1
6.425402504E-1,-3.250949576E-2,-6.867122090E-1,1.056338684E0,1.260349928E0
6.525282501E-1,3.189439061E-1,-1.753708613E-1,7.659250242E-1,8.480101985E-1
6.625162503E-1,-3.556693174E-2,1.091459692E0,7.541621804E-2,1.094640065E0
6.725042504E-1,-9.625569463E-2,1.605380393E0,-4.482598311E-1,1.669565285E0
6.824912503E-1,5.300564577E-1,1.065445576E0,4.209673673E-1,1.262278752E0
6.924792500E-1,7.809224014E-1,8.996471916E-1,-1.258426058E-1,1.197932063E0
7.024672502E-1,4.829260723E-1,1.153367673E-1,-5.991636032E-1,7.781498471E-1
7.124552503E-1,1.751176769E-1,-3.968189514E-1,-2.742852849E-1,5.131899243E-1
7.224432500E-1,9.464931831E-2,-5.984810869E-1,-6.008774221E-1,8.533415385E-1
7.324312502E-1,-2.203043016E-1,-3.774374780E-1,-8.874371821E-1,9.892106890E-1
7.424192503E-1,-4.265437838E-1,-2.518838708E-1,-5.737568665E-1,7.580118902E-1
7.524072500E-1,-2.414060258E-1,-2.004280807E-1,1.497548527E0,1.530065318E0
7.623952501E-1,-9.559797788E-1,4.592278920E-1,-3.929726529E-1,1.131023917E0
7.723832503E-1,-5.075587108E-1,8.273421308E-1,4.656079352E-2,9.717400650E-1
7.823702502E-1,-6.711307680E-1,1.008438440E0,5.529127121E-2,1.212609467E0
7.923577502E-1,-5.653664044E-1,1.069613910E0,-2.636375052E-1,1.238231732E0
8.023457504E-1,-6.431470902E-1,1.334226438E0,-5.632342172E-1,1.584623347E0
8.123337501E-1,-5.379090491E-1,1.262035398E0,-6.674760389E-1,1.525648634E0
8.223217502E-1,6.377287678E-2,3.088366283E-1,-3.457043463E-1,4.679300566E-1
8.323097504E-1,4.299080524E-1,-5.159299502E-1,-2.849055827E-2,6.721728639E-1
8.422977501E-1,5.194667847E-1,-9.726450013E-1,-1.029150885E-1,1.107463568E0
8.522857502E-1,6.377278177E-1,-1.131914531E0,-4.732777280E-1,1.382721622E0
8.622737504E-1,7.891142043E-1,-1.173641431E0,-7.926906538E-1,1.621263060E0
8.722617500E-1,8.283415662E-1,-1.119766063E0,-8.859262615E-1,1.650724425E0
8.822487504E-1,8.693714784E-1,-9.959059560E-1,-9.199161261E-1,1.610553048E0
8.922367501E-1,1.011379735E0,-2.742351450E-1,-8.665614527E-1,1.359787717E0
9.022247503E-1,1.369826919E0,7.864681931E-1,-4.593818200E-1,1.644989259E0
9.122127504E-1,1.174261529E0,8.196702915E-1,-3.030138248E-1,1.463750970E0
9.222007501E-1,7.226953894E-1,6.328888813E-1,4.516681731E-2,9.617052580E-1
9.321887502E-1,4.097413711E-1,7.481040265E-1,8.094055045E-1,1.175876225E0
9.421767504E-1,1.449319377E-1,7.449544238E-1,9.805412275E-1,1.239928812E0
9.521647501E-1,1.251590663E-1,9.467347462E-1,9.132900614E-1,1.321389499E0
9.621527502E-1,1.814722481E-1,1.127269430E0,8.511329895E-1,1.424112324E0
9.721407504E-1,2.340235323E-1,1.204372789E0,9.627194989E-1,1.559522254E0
9.821277503E-1,3.422616519E-1,1.283324526E0,9.859662741E-1,1.654144604E0
9.921157500E-1,3.990999136E-1,1.319995777E0,8.343959194E-1,1.611795937E0
1.002103750E0,3.455056141E-1,1.340540262E0,6.252918863E-1,1.519016875E0
1.012091750E0,3.049305421E-1,1.384988603E0,4.101465100E-1,1.476277828E0
1.022079750E0,3.027368495E-1,1.454415956E0,1.894667441E-1,1.497622456E0
1.032067750E0,5.366881139E-1,1.522376974E0,1.302443898E-1,1.619453421E0
1.042055750E0,1.069156438E0,1.474856945E0,3.663760078E-1,1.858098457E0
1.052043750E0,1.133916179E0,1.005015553E0,1.066115229E0,1.852680178E0
1.062031750E0,6.303523591E-1,2.395576479E-1,1.968498479E0,2.080797497E0
1.072019750E0,8.308052174E-1,1.451672150E-1,1.684800346E0,1.884108021E0
1.082006750E0,1.055149799E0,2.040140319E-1,9.607864094E-1,1.441552409E0
1.091994750E0,8.739274827E-1,9.391037643E-2,4.111843908E-1,9.703818872E-1
1.101982750E0,6.188834842E-1,-7.473443270E-2,3.156677842E-2,6.241782309E-1
1.111970750E0,4.051250674E-1,-1.133859900E-1,-2.412865233E-1,4.849761739E-1
1.121958750E0,2.773488422E-1,-9.026478365E-2,-3.247350615E-1,4.364893717E-1
1.131946750E0,2.930222123E-1,-5.494175389E-2,-1.887931448E-1,3.528788245E-1
1.141934750E0,5.060450128E-1,-8.431977332E-2,-2.056828272E-1,5.527176536E-1
1.151922750E0,4.295850668E-1,-2.714432457E-1,-3.136516643E-1,5.971617300E-1
1.161910750E0,4.410488255E-1,-4.854653719E-1,-3.088961238E-1,7.249948338E-1
1.171898750E0,9.535767925E-1,-5.282550037E-1,-4.098769534E-1,1.164629196E0
1.181885750E0,1.461872764E0,-6.195563525E-1,-5.484202963E-1,1.679787747E0
1.191873750E0,1.907347566E0,-7.357680094E-1,-7.082486737E-1,2.163549280E0
1.201861750E0,2.294650028E0,-7.601289716E-1,-9.852166611E-1,2.610338421E0
1.211849750E0,2.415120797E0,-7.691129261E-1,-9.778520930E-1,2.716714536E0
1.221837750E0,2.401834315E0,-7.572455634E-1,-4.829893684E-1,2.564275268E0
1.231825750E0,2.694614489E0,-6.142646223E-1,-1.140318149E-1,2.766093188E0
1.241813750E0,2.802378674E0,-6.321345904E-1,-2.026001751E-1,2.879924860E0
1.251801750E0,2.259357989E0,-9.146317050E-1,-3.601475537E-2,2.437733935E0
1.261789750E0,1.484767391E0,-1.167911160E0,2.837074882E-1,1.910246220E0
1.271777750E0,8.958576111E-1,-1.180010511E0,4.017247653E-1,1.535046726E0
1.281764750E0,6.148798956E-1,-1.145194289E0,3.975340658E-1,1.359257363E0
1.291752750E0,4.701863050E-1,-1.142560557E0,2.003560138E-1,1.251663820E0
1.301740750E0,4.801908910E-1,-1.245032718E0,-2.638368952E-1,1.360257207E0
1.311728750E0,5.769916923E-1,-1.312044003E0,-7.916106731E-1,1.637383991E0
1.321716750E0,6.874343401E-1,-1.279796608E0,-1.126240978E0,1.838168673E0
1.331704750E0,6.117753164E-1,-1.338007979E0,-1.301907708E0,1.964560528E0
1.341692750E0,4.887607165E-1,-1.374611549E0,-1.343489597E0,1.983282190E0
1.351680750E0,3.390063608E-1,-1.330433934E0,-1.207207958E0,1.828204261E0
1.361668750E0,1.296975289E-1,-1.261614837E0,-9.548491466E-1,1.587523335E0
1.371656750E0,-7.787453368E-2,-1.232098677E0,-6.291598195E-1,1.385631146E0
1.381643750E0,-2.184794587E-1,-1.278708003E0,-2.727901518E-1,1.325610010E0
1.391631750E0,-3.341821155E-1,-1.435207122E0,2.339237094E-2,1.473785728E0
1.401619750E0,-3.325636062E-1,-1.624257252E0,2.967567194E-1,1.684302444E0
1.411607750E0,-3.271220411E-1,-1.657091268E0,5.615484649E-1,1.779971061E0
1.421595750E0,-3.992610410E-1,-1.638736566E0,7.135643774E-1,1.831404115E0
1.431583750E0,-5.799812275E-1,-1.572154029E0,7.875895429E-1,1.851578732E0
1.441571750E0,-9.088289282E-1,-1.485849126E0,8.878581816E-1,1.954996111E0
1.451559750E0,-1.156345952E0,-1.408016838E0,9.075100887E-1,2.035490589E0
1.461547750E0,-1.261466903E0,-1.311759536E0,7.749414307E-1,1.978015684E0
1.471535750E0,-1.221353542E0,-1.195053935E0,5.986034399E-1,1.810575726E0
1.481522750E0,-1.172146298E0,-1.109516771E0,4.692156672E-1,1.680808660E0
1.491510750E0,-1.050641157E0,-1.019056545E0,4.141582847E-1,1.521134500E0
1.501498750E0,-8.991076398E-1,-9.198382120E-1,3.758484972E-1,1.340059318E0
1.511486750E0,-7.741234052E-1,-8.641038680E-1,3.774599898E-1,1.220007617E0
1.521474750E0,-6.433211911E-1,-7.846314365E-1,3.690148562E-1,1.079666898E0
1.531462750E0,-5.228147542E-1,-6.483138362E-1,3.852923352E-1,9.176580414E-1
1.541450750E0,-5.301389766E-1,-5.308330411E-1,5.400581932E-1,9.243883946E-1
1.551438750E0,-5.815775174E-1,-4.456728767E-1,7.469174802E-1,1.046299405E0
1.561426750E0,-4.980482876E-1,-3.190496676E-1,8.322827357E-1,1.021048157E0
1.571414750E0,-2.464659870E-1,-2.397478285E-1,8.265512949E-1,8.952159221E-1
1.581401750E0,9.670417607E-2,-2.384058926E-1,7.721599102E-1,8.138918811E-1
1.591389750E0,4.001366615E-1,-2.054948393E-1,7.909645557E-1,9.099243954E-1
1.601377750E0,5.818827420E-1,-2.509730208E-1,8.916863537E-1,1.093928488E0
1.611365750E0,6.643381307E-1,-3.769549365E-1,1.024055622E0,1.277548470E0
1.621353750E0,7.066558921E-1,-4.743422136E-1,1.035974586E0,1.340748458E0
1.631341750E0,7.523580220E-1,-4.985308291E-1,8.596108675E-1,1.246397378E0
1.641329750E0,6.923109180E-1,-4.613587636E-1,6.165941530E-1,1.035535932E0
1.651317750E0,5.924004212E-1,-4.266051795E-1,3.389204067E-1,8.048585468E-1
1.661305750E0,4.648185611E-1,-3.828385511E-1,1.202655315E-1,6.140728369E-1
1.671293750E0,4.024030423E-1,-2.935142921E-1,2.932846427E-2,4.989378788E-1
1.681280750E0,3.842801821E-1,-1.447700429E-1,2.157447159E-2,4.112117235E-1
1.691268750E0,2.878885397E-1,-9.598767288E-2,6.935207069E-2,3.112927149E-1
1.701256750E0,3.682576418E-2,-9.686000437E-2,1.811525881E-2,1.051958172E-1
1.711244750E0,-1.241305411E-1,-4.914233923E-2,-2.028019041E-1,2.428002740E-1
1.721232750E0,-1.258405593E-1,6.056034341E-3,-5.842479408E-1,5.976773195E-1
1.731220750E0,7.396493912E-2,3.128728151E-2,-9.662915629E-1,9.696231695E-1
1.741208750E0,4.138004351E-1,6.131244153E-3,-1.198756977E0,1.268182432E0
1.751196750E0,6.745766053E-1,4.166411586E-2,-1.337521929E0,1.498584134E0
1.761184750E0,9.211636296E-1,1.383786707E-1,-1.434928356E0,1.710763127E0
1.771172750E0,1.052849650E0,1.089792359E-1,-1.527413181E0,1.858321793E0
1.781159750E0,1.110615756E0,9.781770520E-2,-1.629555852E0,1.974458897E0
1.791148292E0,1.092968566E0,7.899102297E-2,-1.649047546E0,1.979943857E0
1.801136292E0,1.013388546E0,-1.050028369E-1,-1.086977509E0,1.489799331E0
1.811124292E0,1.048858926E0,-1.856081665E-2,-9.235969484E-2,1.053081128E0
1.821112292E0,8.079106638E-1,6.523822557E-2,-2.888939685E-1,8.604855558E-1
1.831100292E0,5.471040881E-1,-4.585760736E-1,-1.237072027E-1,7.245125054E-1
1.841088292E0,4.164790446E-1,-4.991545808E-1,5.020536304E-2,6.520204511E-1
1.851076292E0,5.845075572E-1,-2.720545721E-1,1.837844199E-1,6.704024818E-1
1.861064292E0,6.595919457E-1,-2.074206197E-1,2.449316776E-1,7.335368941E-1
1.871052292E0,4.508925399E-1,-1.025389755E-1,2.656179571E-1,5.332646840E-1
1.881039292E0,9.284618318E-2,4.223151505E-4,2.639322048E-1,2.797870634E-1
1.891027292E0,-2.175696319E-1,9.044736296E-2,2.776725769E-1,3.641693702E-1
1.901015292E0,-3.919628388E-1,2.217442515E-1,2.068312204E-1,4.955648634E-1
1.911003292E0,-4.648571527E-1,2.698010552E-1,-2.260416627E-2,5.379551377E-1
1.920991292E0,-4.848721719E-1,3.571223505E-1,-2.740829712E-1,6.616334872E-1
1.930979292E0,-5.783153558E-1,5.005764775E-1,-3.332316506E-1,8.343073735E-1
1.940967292E0,-7.806956756E-1,6.472576828E-1,-2.021861923E-1,1.034073258E0
1.950955292E0,-1.032442868E0,7.710119556E-1,8.352747560E-3,1.288591277E0
1.960943292E0,-1.337372240E0,9.164860032E-1,2.595830458E-1,1.641917922E0
1.970931292E0,-1.444372194E0,1.103663124E0,3.579221034E-1,1.852671465E0
1.980918292E0,-1.399948558E0,1.194457811E0,3.489513052E-1,1.873059647E0
1.990906292E0,-1.230706748E0,1.201707409E0,3.035552770E-1,1.746678448E0
2.000894292E0,-8.899836445E-1,1.191667228E0,2.108856797E-1,1.502203195E0
2.010882292E0,-6.585169351E-1,1.081638270E0,1.693341959E-1,1.277599300E0
2.020870292E0,-6.096523386E-1,9.963053209E-1,2.304832077E-1,1.190555658E0
2.030858292E0,-7.829240495E-1,9.344781782E-1,4.344773591E-1,1.294214089E0
2.040846292E0,-9.500766492E-1,8.146190281E-1,5.485986364E-1,1.366459024E0
2.050834292E0,-8.724776655E-1,7.773746033E-1,4.737186080E-1,1.260927385E0
2.060822292E0,-5.897840846E-1,6.714973153E-1,4.082648760E-1,9.825650716E-1
2.070809292E0,-1.229681146E-1,4.705304137E-1,3.495722795E-1,5.989330563E-1
2.080797292E0,2.370250726E-1,3.264516579E-1,5.168780762E-1,6.556786679E-1
2.090785292E0,4.185080284E-1,1.963468704E-1,9.775813669E-1,1.081372458E0
2.100773292E0,6.299620575E-1,6.365366668E-2,1.477542863E0,1.607493980E0
2.110761292E0,7.935636431E-1,-1.194644630E-2,2.001225929E0,2.152856519E0
2.120749292E0,6.917712200E-1,-1.150816825E-1,2.404227726E0,2.504416534E0
2.130737292E0,4.994130278E-1,-2.350153846E-1,2.640807241E0,2.697871103E0
2.140725292E0,2.661488843E-1,-2.538261697E-1,2.739736283E0,2.764311461E0
2.150713292E0,-1.109193420E-1,-2.913290414E-1,2.744227529E0,2.761876254E0
2.160701292E0,-4.619826615E-1,-3.036219352E-1,2.781088961E0,2.835501732E0
2.170688292E0,-7.294880998E-1,-3.619590211E-1,2.782077141E0,2.898813626E0
2.180676292E0,-8.784757394E-1,-3.870374367E-1,2.810764166E0,2.970170500E0
2.190664292E0,-9.349943411E-1,-4.041873202E-1,2.957404733E0,3.127910574E0
2.200652292E0,-1.043547900E0,-5.261008894E-1,3.243616583E0,3.447727209E0
2.210640292E0,-1.058529636E0,-6.002538165E-1,3.503715938E0,3.709018066E0
2.220628292E0,-1.032588463E0,-5.511082613E-1,3.659895068E0,3.842498037E0
2.230616292E0,-1.090143192E0,-3.152850839E-1,3.739128349E0,3.907543688E0
2.240604292E0,-1.194782040E0,6.512190253E-2,3.624817622E0,3.817204183E0
2.250592292E0,-1.367409972E0,4.713940474E-1,3.356477786E0,3.654855059E0
2.260580292E0,-1.550043660E0,9.241661748E-1,2.856473604E0,3.378780833E0
2.270567292E0,-1.773216094E0,1.310089132E0,2.257687439E0,3.155595256E0
2.280555292E0,-1.817078397E0,1.549658621E0,1.593532326E0,2.870986071E0
2.290543292E0,-1.667638183E0,1.689937417E0,8.496124211E-1,2.521655577E0
2.300531292E0,-1.418863131E0,1.725549592E0,8.941620648E-2,2.235774862E0
2.310519292E0,-1.050201446E0,1.678780053E0,-6.764553156E-1,2.092562386E0
2.320507292E0,-6.295626926E-1,1.581182714E0,-1.209939777E0,2.088167192E0
2.330495292E0,-2.787531424E-1,1.415277326E0,-1.451218114E0,2.046154256E0
2.340483292E0,-3.028857708E-3,1.098945006E0,-1.406807926E0,1.785160452E0
2.350471292E0,1.719853234E-1,6.898790610E-1,-1.159615130E0,1.360227672E0
2.360458292E0,3.181639606E-1,3.269426778E-1,-7.799650660E-1,9.035847080E-1
2.370446292E0,4.681093740E-1,3.985403717E-2,-3.596610653E-1,5.916678226E-1
2.380434292E0,5.106367582E-1,-2.053147450E-1,3.620800585E-2,5.515569445E-1
2.390422292E0,5.683031684E-1,-2.836460924E-1,3.264251992E-1,7.141267448E-1
2.400410292E0,6.018907446E-1,-1.772092259E-1,3.356325173E-1,7.115650110E-1
2.410398292E0,5.052514726E-1,-7.419795066E-2,-1.793341041E-3,5.106736752E-1
2.420386292E0,3.105549788E-1,1.103428066E-1,-4.279699928E-1,5.401650160E-1
2.430374292E0,3.788411021E-2,3.309468511E-1,-7.808424407E-1,8.489263462E-1
2.440362292E0,-2.110149032E-1,5.764875162E-1,-9.775509614E-1,1.154327089E0
2.450350292E0,-4.954953933E-1,7.769920492E-1,-9.862925488E-1,1.349816773E0
2.460337292E0,-6.993872184E-1,9.956711903E-1,-9.099401915E-1,1.519373145E0
2.470325292E0,-8.160257220E-1,1.132933993E0,-7.353902793E-1,1.578048248E0
2.480313292E0,-1.042816413E0,1.209696532E0,-5.023038912E-1,1.674258335E0
2.490301292E0,-1.324389668E0,1.265396524E0,-4.518389118E-1,1.886635830E0
2.500289292E0,-1.610808510E0,1.168482141E0,-5.641446286E-1,2.068408502E0
2.510277292E0,-1.595636739E0,1.079296022E0,-6.701207346E-1,2.039607390E0
2.520265292E0,-1.340274214E0,9.178681388E-1,-7.244787902E-1,1.778675464E0
2.530253292E0,-8.257513958E-1,6.053385553E-1,-6.934435236E-1,1.236593731E0
2.540241292E0,-2.900476241E-1,3.215845817E-1,-5.986589885E-1,7.388753968E-1
2.550229292E0,1.077834803E-1,3.064467251E-2,-5.641861439E-1,5.752063799E-1
2.560216292E0,3.619543433E-1,-1.744768220E-1,-4.710657263E-1,6.191575135E-1
2.570204292E0,3.731617016E-1,-1.633355373E-1,-2.762476104E-1,4.921797391E-1
2.580192292E0,2.529072797E-1,-1.759427190E-1,-1.771776509E-1,3.554009742E-1
2.590180292E0,1.517814392E-1,-3.022987103E-1,-5.917733073E-2,3.434007455E-1
2.600168292E0,3.216471469E-1,-3.627437174E-1,1.733605886E-1,5.148725914E-1
2.610156292E0,5.491903746E-1,-3.987479478E-1,4.631561977E-1,8.216590880E-1
2.620144292E0,6.101171923E-1,-4.905024558E-1,7.605806690E-1,1.091475424E0
2.630132292E0,5.887134594E-1,-4.121942049E-1,1.169760050E0,1.372889716E0
2.640120292E0,4.300878543E-1,-3.155865079E-1,1.608899394E0,1.695030284E0
2.650107292E0,2.138221514E-1,-2.680743724E-1,1.976553018E0,2.006077171E0
2.660095292E0,3.962014854E-2,-1.940035987E-1,2.284191990E0,2.292758208E0
2.670083292E0,-7.318842888E-2,-1.610849440E-1,2.465425855E0,2.471766484E0
2.680071292E0,-1.199912971E-1,-1.371452737E-1,2.533050073E0,2.539596309E0
2.690059292E0,-1.059357601E-1,-5.817394853E-2,2.474312161E0,2.477262050E0
2.700047292E0,-3.107385814E-2,4.558840156E-2,2.274751953E0,2.275420914E0
2.710035292E0,3.347881794E-2,1.709573829E-1,1.946502423E0,1.954282206E0
2.720023292E0,9.245968223E-2,3.113075155E-1,1.637602791E0,1.669492157E0
2.730011292E0,1.730033237E-1,3.905232543E-1,1.323165553E0,1.390397656E0
2.739999292E0,2.349972582E-1,4.344978243E-1,9.703735042E-1,1.088869509E0
2.749986292E0,3.054509443E-1,4.966502184E-1,6.292010424E-1,8.578203020E-1
2.759974292E0,3.334099907E-1,5.055952889E-1,3.490629870E-1,6.990234523E-1
2.769962292E0,2.926104587E-1,4.778461576E-1,1.913989565E-1,5.921075843E-1
2.779950292E0,3.404798591E-1,5.287876850E-1,1.641301739E-1,6.499858955E-1
2.789938500E0,4.866210741E-1,6.030777293E-1,2.282346609E-1,8.078328279E-1
2.799926500E0,7.172656649E-1,6.725742263E-1,2.668885571E-1,1.018850149E0
2.809914500E0,9.303972602E-1,7.476097906E-1,2.349235833E-1,1.216449157E0
2.819902500E0,9.517939764E-1,8.084851527E-1,2.488417107E-1,1.273374341E0
2.829890500E0,8.269793111E-1,7.815400136E-1,2.047127742E-1,1.156117163E0
2.839877500E0,7.054782629E-1,6.766561675E-1,4.485340655E-2,9.785576000E-1
2.849865500E0,6.503781956E-1,4.354275316E-1,-1.596900907E-1,7.988052690E-1
2.859853500E0,7.033405209E-1,1.699119008E-1,-4.479899821E-1,8.510305320E-1
2.869841500E0,7.064068007E-1,3.790165186E-2,-8.035334381E-1,1.070566714E0
2.879829500E0,5.280193609E-1,-1.721145469E-1,-1.224054955E0,1.344149693E0
2.889817500E0,1.729489446E-1,-4.278436929E-1,-1.730132932E0,1.790620430E0
2.899805500E0,-1.259911251E-1,-6.422084659E-1,-2.011821376E0,2.115592288E0
2.909793500E0,-2.951808947E-1,-8.320277971E-1,-1.967778686E0,2.156746386E0
2.919781500E0,-3.543933088E-1,-1.047024069E0,-1.633399812E0,1.972270003E0
2.929768500E0,-3.692347115E-1,-1.226220179E0,-1.156930674E0,1.725815397E0
2.939756500E0,-2.048840976E-1,-1.326956595E0,-7.616091943E-1,1.543644993E0
2.949744500E0,-3.706199169E-2,-1.357539872E0,-4.464729220E-1,1.429554534E0
2.959732500E0,3.176909208E-2,-1.344109402E0,-2.724703091E-1,1.371816106E0
2.969720500E0,2.908755898E-2,-1.291419557E0,-1.889317238E-1,1.305490619E0
2.979708500E0,-6.466611207E-2,-1.254807801E0,-1.811312458E-1,1.269461639E0
2.989696500E0,-1.438783425E-1,-1.081923761E0,-2.136657384E-1,1.112165927E0
2.999684500E0,-1.645634526E-1,-8.858046395E-1,-2.950320831E-1,9.480374039E-1
3.009672500E0,-2.021920395E-1,-7.070383000E-1,-4.493971145E-1,8.618251244E-1
3.019660500E0,-2.109944379E-1,-5.053409350E-1,-5.959599137E-1,8.093555042E-1
3.029647500E0,-2.297341794E-1,-3.718513405E-1,-8.043538025E-1,9.154431999E-1
3.039635500E0,-2.717511016E-1,-2.877087379E-1,-1.077335743E0,1.147727007E0
3.049623500E0,-3.222897559E-1,-1.431310683E-1,-1.200146568E0,1.250883277E0
3.059611500E0,-3.387531763E-1,-2.396013558E-2,-1.166314870E0,1.214750254E0
3.069599500E0,-2.667055392E-1,7.714816332E-2,-1.099067797E0,1.133593272E0
3.079587500E0,-1.630537015E-1,2.170878214E-1,-9.502637601E-1,9.882888472E-1
3.089575500E0,-2.380348867E-1,3.101287168E-1,-7.377294579E-1,8.349162721E-1
3.099563500E0,-3.181779939E-1,3.227259582E-1,-6.160094315E-1,7.647593737E-1
3.109551500E0,-3.171138006E-1,3.804923558E-1,-6.172829551E-1,7.914378320E-1
3.119538500E0,-4.605881006E-1,3.869552833E-1,-6.563844556E-1,8.903461929E-1
3.129526500E0,-6.571159422E-1,2.977033836E-1,-7.421432287E-1,1.034990453E0
3.139514500E0,-7.090988588E-1,2.980127013E-1,-7.523954442E-1,1.075979399E0
3.149502500E0,-7.376584142E-1,2.883887690E-1,-6.849653533E-1,1.047132061E0
3.159490500E0,-6.531111842E-1,1.723039967E-1,-6.133071408E-1,9.123532951E-1
3.169478500E0,-3.931562555E-1,6.672199309E-2,-5.225662476E-1,6.573424897E-1
3.179466500E0,-4.971828997E-2,4.156785607E-3,-3.587921691E-1,3.622444034E-1
3.189454500E0,1.916688055E-1,-1.066134524E-1,-1.829658097E-1,2.856218597E-1
3.199442500E0,3.493278658E-1,-1.949280435E-1,-2.616629004E-3,4.000421812E-1
3.209430500E0,5.026903921E-1,-2.380869269E-1,2.582604057E-1,6.132548021E-1
3.219417500E0,6.334598619E-1,-2.431131935E-1,5.363457960E-1,8.648943487E-1
3.229405500E0,6.960566443E-1,-2.022855949E-1,8.476404476E-1,1.115306524E0
3.239393500E0,7.049081594E-1,-1.254052341E-1,1.079891853E0,1.295680671E0
3.249381500E0,6.015252936E-1,-4.665259480E-2,1.167678441E0,1.314337127E0
3.259369500E0,4.408800602E-1,6.603962302E-2,1.090999809E0,1.178565672E0
3.269357500E0,3.646966875E-1,1.753047878E-1,9.488177437E-1,1.031499177E0
3.279345500E0,4.036216021E-1,2.409468001E-1,7.846361142E-1,9.146691150E-1
3.289333500E0,4.893055308E-1,2.865609294E-1,6.722877127E-1,8.794929433E-1
3.299321500E0,5.420784062E-1,3.108373994E-1,5.642147952E-1,8.419068966E-1
3.309308500E0,4.665277022E-1,2.879449654E-1,4.332880354E-1,6.987838876E-1
3.319296500E0,3.536571443E-1,2.737081647E-1,3.139294070E-1,5.463892456E-1
3.329284500E0,3.735142887E-1,2.744326347E-1,3.237363571E-1,5.653595526E-1
3.339272500E0,5.066039336E-1,2.210756224E-1,3.897248170E-1,6.763190145E-1
3.349260500E0,6.865245134E-1,1.956759024E-1,3.984783912E-1,8.175512182E-1
3.359248500E0,8.024367929E-1,1.918775511E-1,4.039449531E-1,9.186366672E-1
3.369236500E0,8.447127467E-1,1.565837574E-1,3.364914733E-1,9.226508599E-1
3.379224500E0,7.879035383E-1,8.462558270E-2,2.867228973E-1,8.427119881E-1
3.389212500E0,6.931447309E-1,1.039342582E-2,2.052688444E-1,7.229750617E-1
3.399200500E0,6.174133480E-1,-4.360970378E-2,8.244691014E-2,6.244185627E-1
3.409187500E0,5.492979634E-1,3.495582461E-2,-4.902831852E-2,5.525883986E-1
3.419175500E0,4.009997106E-1,1.612708855E-1,-7.413860142E-2,4.385266224E-1
3.429163500E0,2.980226415E-1,7.481570899E-2,-1.614682290E-1,3.471121925E-1
3.439151500E0,3.858261859E-1,-4.454174995E-2,-2.899757034E-1,4.846975570E-1
3.449139500E0,7.254570293E-1,-1.502512228E-1,-3.301723874E-1,8.110962562E-1
3.459127500E0,1.086000440E0,-3.249250960E-1,-2.525690183E-1,1.161363157E0
3.469115500E0,1.248027370E0,-3.618561101E-1,-1.464780146E-1,1.307657436E0
3.479103500E0,1.229126245E0,-3.852847338E-1,-1.864501655E-2,1.288232623E0
3.489091500E0,1.129131256E0,-4.880495489E-1,2.483765647E-1,1.254918593E0
3.499078500E0,9.251295036E-1,-5.386712337E-1,5.706502408E-1,1.213125300E0
3.509066500E0,7.420140052E-1,-5.103116530E-1,8.110099804E-1,1.211915820E0
3.519054500E0,6.680777174E-1,-5.104397070E-1,8.519282109E-1,1.196937011E0
3.529042500E0,6.481749648E-1,-4.519049853E-1,7.978090140E-1,1.122874937E0
3.539030500E0,6.272477800E-1,-3.810145122E-1,7.520203453E-1,1.050783725E0
3.549018500E0,4.407952756E-1,-2.433517599E-1,7.809348267E-1,9.291823059E-1
3.559006500E0,1.085026878E-1,-1.536402690E-1,8.437833318E-1,8.644931906E-1
3.568994500E0,-1.066409343E-1,-1.915313959E-2,7.999406165E-1,8.072447718E-1
3.578982500E0,-4.043910956E-1,3.098614991E-1,7.570208842E-1,9.124839319E-1
3.588969500E0,-5.024430549E-1,2.463151288E-1,5.764068246E-1,8.033461231E-1
3.598957500E0,-1.301157510E-1,-2.768832028E-1,3.368627715E-1,4.550504845E-1
3.608945500E0,8.738079071E-2,2.687462175E-1,-6.510874629E-4,2.825957465E-1
3.618933500E0,2.171386921E-1,6.848527944E-1,-2.131660938E-2,7.187676672E-1
3.628921500E0,2.628697658E-1,4.362438029E-1,-1.228570175E-1,5.239303542E-1
3.638909500E0,-8.251239896E-2,2.528996783E-1,-2.160508177E-1,3.427017641E-1
3.648897500E0,-3.179411817E-1,2.997616035E-1,-2.336936215E-1,4.955363989E-1
3.658885500E0,-4.108633786E-1,2.374337929E-1,-1.739333233E-1,5.054070863E-1
3.668873500E0,-7.233227956E-1,2.664441687E-1,-1.701121679E-1,7.893836275E-1
3.678861500E0,-9.698694742E-1,4.904393059E-1,-1.122121614E-1,1.092597400E0
3.688848500E0,-9.987582278E-1,6.755492896E-1,-1.492533955E-1,1.214973834E0
3.698836500E0,-1.177454401E0,5.965171534E-1,-1.269050449E-2,1.319997208E0
3.708824500E0,-1.213275028E0,4.584714085E-1,1.518314329E-1,1.305865656E0
3.718812500E0,-1.062279455E0,3.738358855E-1,1.747626047E-1,1.139619620E0
3.728800500E0,-9.093794435E-1,3.384426892E-1,7.325961873E-2,9.730783103E-1
3.738788500E0,-8.224266690E-1,2.153418428E-1,1.237241596E-1,8.591073290E-1
3.748776500E0,-6.787401152E-1,2.567196643E-1,7.143367946E-2,7.291748080E-1
3.758764500E0,-5.268271136E-1,2.982424968E-1,2.001718265E-1,6.376238348E-1
3.768752500E0,-6.745219338E-1,2.798600203E-1,2.576503949E-1,7.743934375E-1
3.778739500E0,-8.435789716E-1,1.521468902E-1,2.533259404E-1,8.938390177E-1
3.788727500E0,-8.135897720E-1,-1.227915287E-3,1.994109575E-1,8.376721046E-1
3.798715500E0,-5.775061011E-1,-5.921475291E-3,2.154734051E-1,6.164228654E-1
3.808703500E0,-2.165504622E-1,1.313740718E-1,5.176714703E-1,5.763132834E-1
3.818691500E0,1.832359511E-1,4.393510133E-1,6.997351277E-1,8.463060768E-1
3.828679500E0,1.934089369E-1,7.305511236E-1,7.051806396E-1,1.033630348E0
3.838667500E0,-1.044821423E-1,8.011088902E-1,7.505065012E-1,1.102702127E0
3.848655500E0,-4.373442489E-1,8.691628790E-1,7.379285556E-1,1.221168561E0
3.858643500E0,-7.422163188E-1,1.038949065E0,8.106369281E-1,1.512426015E0
3.868630500E0,-9.557999039E-1,1.021840696E0,8.531567109E-1,1.638776445E0
3.878618500E0,-1.135787727E0,9.852032125E-1,8.001499468E-1,1.703196720E0
3.888606500E0,-1.124318998E0,1.074568548E0,8.321769011E-1,1.763890350E0
3.898594500E0,-1.024842072E0,9.990593594E-1,8.190908325E-1,1.649039317E0
3.908582500E0,-1.098021145E0,8.345894623E-1,1.029440907E0,1.721028352E0
3.918570500E0,-1.167070330E0,5.761173874E-1,1.239253038E0,1.797140087E0
3.928558500E0,-1.041141770E0,2.983155870E-1,1.378703284E0,1.753223067E0
3.938546500E0,-6.031098890E-1,2.209078074E-1,1.255794811E0,1.410518488E0
3.948534500E0,-4.893593252E-2,2.256019521E-1,1.028642104E0,1.054227464E0
3.958522500E0,3.759057999E-1,2.549450344E-1,8.418423486E-1,9.565566793E-1
3.968509500E0,8.292673266E-1,2.064961749E-1,5.424988210E-1,1.012240060E0
3.978497500E0,1.039638451E0,1.734629148E-1,1.979259109E-1,1.072432822E0
3.988485500E0,8.813584167E-1,2.572254485E-1,-2.375781461E-1,9.483675266E-1
3.998473500E0,6.192838722E-1,3.470538837E-1,-3.843770997E-1,8.072822724E-1
4.008461500E0,-3.403664231E-2,5.330210692E-1,-3.059310007E-1,6.155190739E-1
4.018449500E0,-5.619653714E-1,9.002887774E-1,-3.489056969E-1,1.117166123E0
4.028437500E0,-8.615340167E-1,1.193862857E0,-3.488611118E-1,1.513027911E0
4.038425500E0,-8.423387772E-1,1.312287685E0,-5.295447533E-1,1.646830662E0
4.048413500E0,-5.562415320E-1,1.096075192E0,-8.140598150E-1,1.474272312E0
4.058400500E0,-2.258416879E-1,7.526921904E-1,-1.276243694E0,1.498782161E0
4.068388500E0,-1.751007199E-1,3.095960355E-1,-1.523176142E0,1.564153294E0
4.078376500E0,4.598191917E-1,-3.352670664E-1,-1.337347244E0,1.453387541E0
4.088364500E0,1.330387157E0,-7.615682638E-1,-5.058474500E-1,1.614248385E0
4.098352500E0,2.863375658E0,-7.151618952E0,2.508339740E0,8.101625889E0
4.108340500E0,2.093040664E0,-6.451380964E0,1.721720689E0,6.997532257E0
4.118328500E0,-2.392446756E-2,-2.726395860E0,-3.116565943E0,4.140868272E0
4.128316500E0,5.065735281E-1,-1.152232436E0,-3.504873687E0,3.724029523E0
4.138304500E0,1.590278935E-1,-9.082959545E-1,-2.145949194E0,2.335677494E0
4.148291500E0,7.069944459E-1,-8.761263281E-1,-1.267248337E0,1.695097884E0
4.158279500E0,3.394986963E0,-5.762349164E-1,-2.022689888E0,3.993652156E0
4.168267500E0,2.828496432E0,-1.006897552E0,-2.572540998E0,3.953757951E0
4.178255500E0,1.991252918E0,-7.723154461E-1,-1.424725257E0,2.567372468E0
4.188243500E0,1.030691627E0,-1.595137972E-1,4.975292011E-1,1.155554060E0
4.198231500E0,-3.701597410E-1,1.700352770E-1,2.646861448E0,2.678022732E0
4.208219500E0,-1.273243487E0,3.685079026E-1,3.468467753E0,3.713114004E0
4.218207500E0,-1.483999359E0,6.667018676E-1,3.571571707E0,3.924649020E0
4.228195500E0,-7.978777188E-1,1.138577433E0,2.625855911E0,2.971209634E0
4.238182500E0,2.608325958E-2,1.303580596E0,1.476093339E0,1.969480706E0
4.248170500E0,5.941987324E-1,1.453752297E0,7.558356535E-1,1.742915778E0
4.258158500E0,6.415243417E-1,1.642467674E0,5.130044420E-1,1.836416919E0
4.268146500E0,1.200064999E-1,1.522207405E0,6.019859080E-1,1.641311664E0
4.278134500E0,-4.204241610E-1,1.442656621E0,8.601594825E-1,1.731441289E0
4.288122500E0,-6.646477407E-1,1.423823909E0,8.986212976E-1,1.810124686E0
4.298110500E0,-8.215437394E-1,1.261375394E0,5.821009894E-1,1.613952776E0
4.308098500E0,-1.015183641E0,1.099465992E0,1.604875048E-1,1.505051339E0
4.318086500E0,-1.019386035E0,8.671888590E-1,1.008881512E-1,1.342141135E0
4.328073500E0,-7.791748148E-1,7.599754822E-1,2.499580903E-1,1.116761019E0
4.338061500E0,-6.843125117E-1,5.187018228E-1,2.606862693E-1,8.973809256E-1
4.348049500E0,-9.650215477E-1,3.929773307E-1,6.518720131E-1,1.229078879E0
4.358037500E0,-9.218264115E-1,3.803490990E-1,1.043978255E0,1.443717412E0
4.368025500E0,-6.022538567E-1,3.739434743E-1,9.528248405E-1,1.187610461E0
4.378013500E0,-3.441033787E-1,3.651048231E-1,6.066861923E-1,7.872590444E-1
4.388001500E0,-1.273985499E-1,3.949595368E-1,4.114554092E-2,4.170328306E-1
4.397989500E0,-7.157108903E-2,2.521319389E-1,-4.617569590E-1,5.309542584E-1
4.407977500E0,-2.009880978E-1,4.415758789E-2,-7.561725993E-1,7.836728323E-1
4.417965500E0,-4.201803321E-1,-4.934231400E-2,-8.031291032E-1,9.077458520E-1
4.427952500E0,-9.418262279E-1,2.499743164E-2,-8.103726339E-1,1.242724958E0
4.437940500E0,-1.617005389E0,1.983673757E-1,-6.502197361E-1,1.754092856E0
4.447928500E0,-1.959718884E0,4.662610692E-1,-4.515734482E-1,2.064416641E0
4.457916500E0,-1.859023983E0,6.764626247E-1,-4.237407017E-1,2.023148051E0
4.467904500E0,-1.516671261E0,6.579450774E-1,-4.243850648E-1,1.706835119E0
4.477892500E0,-1.219567802E0,2.842027473E-1,-2.426781607E-1,1.275542831E0
4.487880500E0,-9.968760091E-1,-8.603476167E-2,1.196413413E-3,1.000582425E0
4.497868500E0,-2.569067752E-1,-7.296611774E-1,4.109013855E-1,8.759260663E-1
4.507856500E0,1.250918233E-1,-1.049414996E0,6.848481897E-1,1.259339843E0
4.517843500E0,5.563801110E-1,-1.641022827E0,9.325350753E-1,1.967774482E0
4.527831500E0,4.494900852E-1,-2.371666337E0,9.895781723E-1,2.608851761E0
4.537819500E0,-2.996522605E-2,-2.426817859E0,1.335120478E0,2.769998110E0
4.547807500E0,-2.710470968E-1,-2.141794748E0,1.584710047E0,2.678069679E0
4.557795500E0,-3.155344677E-1,-1.507297005E0,1.406755886E0,2.085777645E0
4.567783500E0,-8.203473991E-1,-8.903970426E-1,1.074973322E0,1.619056636E0
4.577771500E0,-1.561544548E0,-1.483198875E-1,9.231725136E-1,1.820073530E0
4.587759500E0,-2.168016002E0,9.804459178E-1,1.143192714E0,2.639783544E0
4.597747500E0,-2.459861060E0,1.964522372E0,-1.649376744E0,3.553970769E0
4.607734500E0,-1.653672693E0,2.576146976E0,-6.802791023E0,7.459834605E0
4.617722500E0,1.024255012E0,1.698680466E0,2.136448346E-2,1.983701111E0
4.630505500E0,2.699916744E-1,2.141525191E-1,-7.357960761E-2,3.523787229E-1
4.640493500E0,1.728796551E-1,1.210959823E-1,-4.290768707E-1,4.781825729E-1
4.650481500E0,1.922932881E-1,1.719388381E-2,-5.385232991E-1,5.720836320E-1
4.660469500E0,9.725206017E-2,-6.432960480E-2,-4.652284509E-1,4.796183616E-1
4.670457500E0,1.399924292E-1,-5.340042785E-2,-2.842863625E-1,3.213537332E-1
4.680444500E0,2.715935192E-1,6.314115822E-3,3.354664564E-2,2.737303146E-1
4.690432500E0,3.331861885E-1,6.537216336E-2,1.856800872E-1,3.869930887E-1
4.700420500E0,4.153360601E-1,1.225707963E-1,1.335334486E-1,4.531653394E-1
4.710408500E0,4.577331975E-1,1.689272296E-1,5.670571268E-2,4.911940827E-1
4.720396500E0,2.052964725E-1,8.780749127E-2,6.702663302E-2,2.331295062E-1
4.730384500E0,4.224490517E-1,5.252802327E-2,-9.819755495E-2,4.368811673E-1
4.740372500E0,2.666711868E-1,1.009341981E-1,-2.380471659E-1,3.714400186E-1
4.750360500E0,1.297826059E-1,4.548490584E-2,-3.998711979E-1,4.228585773E-1
4.760348500E0,1.852909550E-1,-2.918169916E-2,-4.641823840E-1,5.006491738E-1
4.770335500E0,2.876892959E-1,-3.814153388E-2,-1.702551323E-1,3.364620597E-1
4.780323500E0,4.897199522E-1,-4.740644708E-2,2.217989230E-1,5.396922874E-1
4.790311500E0,5.242578471E-1,-1.113707471E-1,5.477917206E-1,7.663716479E-1
4.800299500E0,3.538126802E-1,-2.406078078E-1,7.844197673E-1,8.935266650E-1
4.810287500E0,1.580455613E-1,-3.451373126E-1,8.114760035E-1,8.958746945E-1
4.820275500E0,1.026975721E-1,-3.558431259E-1,6.680917507E-1,7.638833085E-1
4.830263500E0,2.152561080E-1,-2.419640695E-1,4.245049328E-1,5.339346785E-1
4.840251500E0,2.404230358E-1,-1.013761014E-2,2.005466330E-1,3.132490372E-1
4.850239500E0,3.594058344E-1,1.053886069E-1,-6.010937691E-4,3.745392817E-1
4.860227500E0,5.419087639E-1,2.123349121E-1,-2.318999881E-1,6.265212109E-1
4.870214500E0,6.605116396E-1,3.777636065E-1,-3.332304811E-1,8.306765448E-1
4.880202500E0,6.827135175E-1,4.843120086E-1,-4.595046115E-1,9.548823784E-1
4.890190500E0,7.067045702E-1,5.290383844E-1,-6.939838064E-1,1.122909830E0
4.900178500E0,6.235327515E-1,4.228373069E-1,-9.650922990E-1,1.224331502E0
4.910166500E0,2.911846883E-1,1.667684376E-2,-1.201416875E0,1.236312722E0
4.920154500E0,-1.742743256E-1,-2.517606407E-1,-1.488746129E0,1.519907891E0
4.930142500E0,-1.171092776E-1,-1.879379895E-1,-2.030183095E0,2.042223952E0
4.940130500E0,1.160020050E0,1.809685470E-1,-3.289442967E0,3.492682517E0
4.950118500E0,2.008595029E0,6.713036263E-1,-3.644570686E0,4.215210319E0
4.960105500E0,1.754514067E0,1.365496324E0,-1.901714505E0,2.925648284E0
4.970093500E0,6.513988271E-1,2.030425316E0,1.385404193E-1,2.136853024E0
4.980081500E0,-1.715277496E0,3.125214267E0,3.075502117E0,4.708275095E0
4.990069500E0,-1.365784446E0,1.723958711E0,-9.178403646E-1,2.383239754E0
5.000057500E0,-8.533118083E-1,-3.674092108E-1,-6.994304878E-1,1.162898782E0
5.010045500E0,-1.091873895E0,-1.576293857E0,5.955605489E-1,2.007880299E0
5.020033500E0,-1.257103564E0,-1.129267643E0,9.383424568E-1,1.932884204E0
5.030021500E0,-1.004146583E0,8.618816337E-1,1.379302624E0,1.911446060E0
5.040009500E0,-4.933785550E-1,2.786258485E0,2.323742557E0,3.661480331E0
5.049996500E0,5.506543712E-1,2.232011584E0,-4.887903911E-1,2.350321679E0
5.059984500E0,1.673030924E0,-1.131304666E-1,-2.134402113E0,2.714314528E0
5.069972500E0,1.242085137E0,-3.550338712E-1,-1.627492955E0,2.077873397E0
5.079960500E0,1.495477297E0,1.356024858E-1,-2.297628307E0,2.744801672E0
5.089948500E0,1.519189803E0,2.670908707E-1,-1.729339757E0,2.317302567E0
5.099936500E0,1.375951000E0,-8.858001079E-1,-6.648839682E-1,1.766339060E0
5.109924500E0,9.328096752E-1,-1.371304071E0,2.040311642E0,2.629349795E0
5.119912500E0,1.228694429E0,-1.338114398E0,2.051527187E0,2.740256181E0
5.129900500E0,1.194461466E0,-1.030742497E0,1.648198530E0,2.281606163E0
5.139888500E0,9.816291019E-1,-1.312050581E0,1.427200091E0,2.173010014E0
5.149875500E0,1.364110681E0,-1.528651037E0,7.126937270E-2,2.050036893E0
5.159863500E0,1.102151180E0,-1.373090103E0,-6.566850024E-1,1.879188348E0
5.169851500E0,8.608104969E-1,-1.042379187E0,-7.902938801E-1,1.565922571E0
5.179839500E0,3.850778154E-1,-1.308014686E0,-2.307492560E-1,1.382907286E0
5.189827500E0,-5.181282109E-1,-1.065854735E0,1.220424419E0,1.701158112E0
5.199815500E0,-3.854656320E-1,-6.628200473E-1,1.261690559E0,1.476406866E0
5.209803500E0,-6.341822854E-1,-9.670117937E-1,1.402212015E0,1.817552617E0
5.219791500E0,-6.889006025E-1,-1.225506819E0,7.896272975E-1,1.612439851E0
5.229779500E0,-4.276966354E-1,-1.100368510E0,1.775916338E-2,1.180699224E0
5.239766500E0,-4.929767051E-1,-7.884078607E-1,-2.649975675E-1,9.668695348E-1
5.249754500E0,-4.908364049E-1,-4.336157718E-1,-7.427817446E-1,9.902866929E-1
5.259742500E0,-5.554519386E-1,-2.729138204E-1,-7.788368458E-1,9.947842187E-1
5.269730500E0,-1.149201166E0,-2.229470238E-1,2.872088009E-1,1.205345424E0
5.279718500E0,-5.266541091E-1,1.655343828E-1,-7.940156329E-1,9.670713561E-1
5.289706500E0,-7.963119806E-1,-1.762529138E-1,-7.763044167E-1,1.125977978E0
5.299694500E0,-1.185220526E0,-7.120677826E-1,1.652902615E-1,1.392518974E0
5.309682500E0,-1.139388223E0,-4.653948042E-1,7.716202122E-1,1.452651231E0
5.319670500E0,-6.182811479E-1,-6.498686108E-1,-2.410163820E-2,8.973191618E-1
5.329657500E0,-2.361696249E-1,-3.694036961E-2,-8.772507477E-1,9.092356993E-1
5.339645500E0,-6.441197746E-1,3.868674289E-1,-5.379461789E-1,9.240902461E-1
5.349633500E0,-6.932090503E-1,2.098513073E-1,-4.067779291E-1,8.306892573E-1
5.359621500E0,-5.270942583E-1,2.682714236E-1,-1.878184140E-1,6.205430448E-1
5.369609500E0,-5.361364657E-1,3.088370669E-1,-1.843685567E-2,6.190012612E-1
5.379597500E0,-6.222272875E-1,3.542129222E-1,3.242503273E-1,7.859846476E-1
5.389585500E0,-4.781741133E-1,4.014177865E-1,7.770727408E-1,9.968092929E-1
5.399573500E0,8.706650287E-2,5.147005731E-1,9.881648272E-1,1.117571913E0
5.409561500E0,6.754711562E-1,8.850655514E-1,8.939088804E-1,1.427821907E0
5.419548500E0,9.934004241E-1,1.427531336E0,7.150314438E-1,1.880414870E0
5.429536500E0,1.462485260E0,1.439692959E0,1.839101350E-1,2.060437306E0
5.439524500E0,9.902677783E-1,6.623886690E-1,-1.137733680E-1,1.196801321E0
5.449512500E0,1.878531026E0,-5.850446239E-1,1.140172554E0,2.274016156E0
5.459500500E0,4.050706590E0,-1.948279392E0,1.712123215E0,4.809925402E0
5.469488500E0,1.593075366E0,-1.487388990E0,-1.959570365E0,2.930892551E0
5.479476500E0,8.762333322E-1,3.284977448E-1,1.324840488E0,1.622004297E0
5.489464500E0,7.705741453E-1,3.358854094E-1,2.373443890E0,2.517903775E0
5.499452500E0,6.188334174E-1,-9.344634140E-1,-2.991005173E0,3.194102161E0
5.509439500E0,3.992524163E-1,-1.259281798E0,-4.841392234E0,5.018393359E0
5.519426875E0,2.967184932E-1,-1.332262066E0,-2.748556223E0,3.068798688E0
5.529414875E0,-3.172172964E-2,-1.755752507E0,-8.961869556E-1,1.971503029E0
5.539402875E0,-5.292401133E-1,-1.189343252E0,3.348039669E-1,1.344145143E0
5.549390875E0,-1.103627602E0,-6.521037090E-1,9.485066718E-1,1.594646681E0
5.559378875E0,-1.198881669E0,-4.088528135E-1,1.284333317E0,1.803881910E0
5.569366875E0,-6.679118027E-1,-3.461604291E-1,1.427074960E0,1.613219192E0
5.579354875E0,-5.226739825E-1,-3.734411985E-1,1.393371025E0,1.534317188E0
5.589342875E0,-7.128457546E-1,-9.864545166E-2,1.368896919E0,1.546531205E0
5.599329875E0,-1.048645649E0,3.402570802E-1,1.386050311E0,1.771035867E0
5.609317875E0,-1.472600504E0,3.968844402E-1,1.568003967E0,2.187397071E0
5.619305875E0,-1.576734591E0,2.761505467E-1,1.665811513E0,2.310255201E0
5.629293875E0,-1.373347235E0,2.484031695E-1,1.387865871E0,1.968237394E0
5.639281875E0,-1.210297626E0,4.804668796E-1,9.104752117E-1,1.588909651E0
5.649269875E0,-1.096165970E0,6.439088362E-1,5.632096589E-1,1.390468821E0
5.659257875E0,-1.052932096E0,6.800288415E-1,4.076187587E-1,1.318050939E0
5.669245875E0,-1.188441757E0,5.433881825E-1,3.590979785E-1,1.355218022E0
5.679233875E0,-1.503222227E0,3.731891835E-1,2.688327563E-1,1.572010903E0
5.689220875E0,-1.750478757E0,5.189555919E-1,1.846176481E-1,1.835095219E0
5.699208875E0,-1.830745094E0,6.130384612E-1,2.946786189E-1,1.953017984E0
5.709196875E0,-1.735313857E0,6.603921372E-1,5.003754795E-1,1.922968429E0
5.719184875E0,-1.379970668E0,6.666100663E-1,6.374798226E-1,1.659839917E0
5.729172875E0,-1.011219521E0,7.381454873E-1,5.239912140E-1,1.357199497E0
5.739160875E0,-8.198381066E-1,8.502331030E-1,3.753526533E-1,1.239322583E0
5.749148875E0,-6.694287166E-1,7.932297671E-1,3.030670345E-1,1.081294547E0
5.759136875E0,-4.298589358E-1,6.366471791E-1,2.763616312E-1,8.163786416E-1
5.769124875E0,-2.116879177E-1,5.134083384E-1,1.977300292E-1,5.894888132E-1
5.779112875E0,4.046360940E-2,5.088884407E-1,1.635238177E-1,5.360455090E-1
5.789099875E0,1.806947511E-1,5.719664490E-1,3.023314548E-1,6.717146123E-1
5.799087875E0,2.555911517E-1,6.086711758E-1,5.982461751E-1,8.909017472E-1
5.809075875E0,3.276721179E-1,5.710940444E-1,9.790688986E-1,1.179870049E0
5.819063875E0,2.545570716E-1,4.933260763E-1,1.064687923E0,1.200720739E0
5.829051875E0,2.085175574E-2,3.856466764E-1,9.810744935E-1,1.054355403E0
5.839039875E0,-3.311807397E-1,3.661251622E-1,8.106562239E-1,9.491532174E-1
5.849027875E0,-3.891602683E-1,3.938339478E-1,6.524422628E-1,8.557054394E-1
5.859015875E0,-2.192033440E-1,5.084990162E-1,4.801967382E-1,7.329462892E-1
5.869003875E0,-1.365471035E-2,6.065843046E-1,2.281718034E-1,6.482232189E-1
5.878990875E0,-3.965113878E-2,7.422280133E-1,-1.390877187E-2,7.434164986E-1
5.888978875E0,-1.950274462E-1,8.010194278E-1,-2.518272990E-1,8.620236754E-1
5.898966875E0,-5.140065086E-1,7.138280869E-1,-4.879548240E-1,1.005909111E0
5.908954875E0,-9.213255975E-1,6.269829011E-1,-6.112053591E-1,1.271031237E0
5.918942875E0,-1.138031011E0,5.391536289E-1,-5.418942189E-1,1.370930546E0
5.928930875E0,-5.769824830E-1,4.344077772E-1,-1.026127875E-1,7.294849462E-1
5.938918875E0,9.397478351E-1,1.981124371E-1,9.400948673E-1,1.343931877E0
5.948906875E0,1.537764507E0,5.042410737E-1,1.534630399E0,2.230262137E0
5.958894875E0,1.706116955E0,1.323704374E-1,2.035042716E0,2.658901250E0
5.968882875E0,1.574476543E0,-7.767090440E-2,2.381748691E0,2.856175061E0
5.978869875E0,1.193110028E0,-4.474581778E-2,2.422948172E0,2.701146344E0
5.988857875E0,1.084847369E0,-1.970073134E-1,2.084715983E0,2.358335520E0
5.998845875E0,9.634714508E-1,-1.335235083E-1,1.527835350E0,1.811183762E0
6.008833875E0,8.999186486E-1,-8.081963003E-2,1.415974606E0,1.679693267E0
6.018821875E0,5.478458074E-1,-1.548471344E-1,1.148125936E0,1.281524806E0
6.028809875E0,2.123714572E-1,1.312612206E-1,7.032539821E-1,7.462555240E-1
6.038797875E0,-5.611771667E-1,1.116449815E-1,-5.456007689E-1,7.906102791E-1
6.048785875E0,-1.260646246E0,-2.179210496E-1,-2.389658804E0,2.710569634E0
6.058773875E0,-1.265795304E0,2.654004407E-1,-5.932227736E0,6.071573195E0
6.068760875E0,-2.257264978E0,-1.231936417E0,-5.444711453E0,6.021444621E0
6.078748875E0,-2.552486218E0,-1.135153304E0,-3.473653064E0,4.457580568E0
6.088736875E0,-2.028884721E0,-9.325022578E-1,-2.140183255E0,3.092946498E0
6.098724875E0,-1.059357017E0,-7.501135683E-1,-1.312258449E0,1.845787066E0
6.108712875E0,-5.165433231E-1,-3.357278270E-1,-8.421797329E-1,1.043454302E0
6.118700875E0,-2.459467542E-1,-2.792174113E-1,-3.112566447E-1,4.851111909E-1
6.128688875E0,-1.917299089E-1,-2.456005991E-1,2.710868579E-1,4.129989065E-1
6.138676875E0,1.373262450E-2,-2.604718226E-1,8.091751242E-1,8.501755918E-1
6.148664875E0,2.050188759E-1,-2.233648074E-1,1.102517654E0,1.143446437E0
6.158651875E0,1.909433122E-1,-2.223567474E-1,1.118553643E0,1.156314890E0
6.168639875E0,4.444196722E-1,-3.647639304E-1,9.483534747E-1,1.109024744E0
6.178627875E0,8.467427538E-1,-5.191859722E-1,6.107223791E-1,1.165979927E0
6.188615875E0,8.491746108E-1,-5.896121764E-1,1.619795680E-1,1.046411687E0
6.198603875E0,8.007058708E-1,-6.509026909E-1,4.056447387E-2,1.032690506E0
6.208591875E0,8.601879877E-1,-6.790611273E-1,2.026142085E-1,1.114495359E0
6.218579875E0,7.945757961E-1,-6.508114743E-1,4.558647197E-1,1.123707664E0
6.228567875E0,7.709936830E-1,-4.425587958E-1,7.757348979E-1,1.179853456E0
6.238555875E0,8.342586561E-1,-2.239290637E-1,9.838121599E-1,1.309205139E0
6.248542875E0,6.351507305E-1,-1.157356936E-1,9.498603022E-1,1.148497190E0
6.258530875E0,2.351133254E-1,-1.042529315E-1,6.440298736E-1,6.934849873E-1
6.268518875E0,1.046297845E-1,-3.052708501E-1,9.080433547E-2,3.352359036E-1
6.278506875E0,8.098364443E-2,-4.205142081E-2,-3.293777508E-1,3.417841063E-1
6.288494875E0,-5.388355404E-2,3.146538770E-1,-2.294891810E-1,3.931612696E-1
6.298482875E0,4.688151330E-2,3.749965578E-1,3.165799499E-2,3.792394011E-1
6.308470875E0,2.968957369E-1,2.289301872E-1,-2.207674742E-2,3.755575748E-1
6.318458875E0,5.300117996E-1,2.221339685E-1,-3.135142547E-1,6.546351622E-1
6.328446875E0,6.927538446E-1,3.395764643E-1,-3.991502362E-1,8.686431807E-1
6.338433875E0,8.320853922E-1,3.324563098E-1,-1.817642069E-1,9.142929097E-1
6.348421875E0,7.252545695E-1,3.718823308E-1,1.262577581E-1,8.247615898E-1
6.358409875E0,1.689370237E-1,6.269618511E-2,5.803536952E-2,1.893109446E-1
6.368397875E0,-5.193467706E-1,-3.802298158E-1,-2.362321901E-1,6.856394305E-1
6.378385875E0,-1.056315587E0,-7.518484372E-1,-5.256342816E-1,1.399060431E0
6.388373875E0,-1.388238339E0,-9.378226393E-1,-8.443180597E-1,1.876057028E0
6.398361875E0,-1.239399072E0,-9.558162761E-1,-3.839854825E-1,1.611564353E0
6.408349875E0,-1.154125764E0,-6.196656954E-1,-2.576750994E-1,1.335061164E0
6.418337875E0,-5.691077453E-1,-5.286912060E-1,-1.920517981E-1,8.001761745E-1
6.428325875E0,4.508350910E-1,-3.384000045E-1,7.947401029E-1,9.743606486E-1
6.438312875E0,1.186789188E0,4.235956907E-2,2.218488582E0,2.516337517E0
6.448300875E0,1.504886783E0,4.335283560E-1,3.505916246E0,3.839802050E0
6.458288875E0,1.477585548E0,8.057778919E-1,3.657074372E0,4.025758316E0
6.468276875E0,1.531988043E0,9.058763766E-1,2.317632802E0,2.922160361E0
6.478264875E0,1.147002686E0,5.943332183E-1,2.547544152E-1,1.316718250E0
6.488252875E0,9.864972013E-1,6.257690191E-3,-1.376505316E0,1.693511964E0
6.498240875E0,8.172293714E-1,-4.934096915E-1,-1.713188578E0,1.961206790E0
6.508228875E0,3.383065952E-1,-4.459034032E-1,-1.277614281E0,1.394840295E0
6.518217042E0,1.014351583E-1,-1.281703824E-1,-1.307782406E-1,2.093315228E-1
6.528204042E0,-4.266450137E-2,1.299637234E-1,9.654659361E-1,9.751078416E-1
6.538192042E0,8.864788234E-2,5.232111955E-1,1.385649776E0,1.483790317E0
6.548180042E0,4.093781859E-1,6.754914021E-1,1.799411035E0,1.965135926E0
6.558168042E0,4.836157514E-1,6.391649902E-1,1.846612099E0,2.013055469E0
6.568156042E0,2.196572341E-1,5.993881363E-1,1.579397852E0,1.703529575E0
6.578144042E0,-1.181177031E-1,2.791267794E-1,1.313133193E0,1.347658092E0
6.588132042E0,-2.144128664E-1,-5.580524147E-2,9.218995017E-1,9.481486136E-1
6.598120042E0,-1.567287683E-1,-1.228921008E-1,3.607644349E-1,4.120890108E-1
6.608108042E0,-2.121837616E-1,-1.160105127E-1,-1.798252702E-1,3.013594457E-1
6.618096042E0,-2.704606211E-1,-4.052588224E-2,-5.505206162E-1,6.147066321E-1
6.628083042E0,-3.401839900E-1,-6.395742953E-2,-6.517125303E-1,7.379328709E-1
6.638071042E0,-4.291585855E-1,-8.688728571E-2,-6.390000987E-1,7.746274060E-1
6.648059042E0,-4.654113226E-1,-1.661527258E-1,-5.993115377E-1,7.767810159E-1
6.658047042E0,-4.362603213E-1,-1.420750612E-1,-5.207676440E-1,6.940513886E-1
6.668035042E0,-4.066307254E-1,-8.159672499E-2,-3.775231397E-1,5.608300040E-1
6.678023042E0,-4.296760641E-1,-5.316346943E-2,-2.512782454E-1,5.005882851E-1
6.688011042E0,-3.832741687E-1,-7.450873017E-2,-1.509376860E-1,4.186081990E-1
6.697999042E0,-3.501667951E-1,-2.360170126E-2,-2.364865440E-1,4.232017370E-1
6.707987042E0,-4.711686373E-1,3.989262879E-2,-3.924002105E-1,6.144666238E-1
6.717974042E0,-6.123973140E-1,1.083629394E-1,-4.792155755E-1,7.851245536E-1
6.727962042E0,-5.970467649E-1,1.508412069E-1,-4.783133501E-1,7.797445544E-1
6.737950042E0,-4.163221930E-1,2.567395449E-1,-5.000445271E-1,6.994883068E-1
6.747938042E0,-2.816691488E-1,3.448845667E-1,-5.269393802E-1,6.898898347E-1
6.757926042E0,-3.702687916E-1,3.612930232E-1,-5.701754469E-1,7.698906850E-1
6.767914042E0,-7.239661355E-1,4.123631895E-1,-5.515099651E-1,9.991664561E-1
6.777902042E0,-1.070539232E0,3.219418466E-1,-4.318513745E-1,1.198414123E0
6.787890042E0,-1.041943716E0,1.845381260E-1,-3.118951607E-1,1.103167992E0
6.797878042E0,-9.577793325E-1,7.311241508E-2,-2.131315953E-1,9.839267005E-1
6.807865042E0,-8.313515666E-1,2.673405468E-2,-5.223668575E-2,8.334199472E-1
6.817853042E0,-5.907251939E-1,8.677501917E-2,2.073025060E-1,6.320288662E-1
6.827842042E0,-3.734148860E-1,1.799568325E-1,4.691419923E-1,6.260330244E-1
6.837830042E0,-4.042867228E-2,2.935115147E-1,6.614300179E-1,7.247573079E-1
6.847818042E0,2.044049183E-1,4.390510511E-1,8.190545797E-1,9.515238309E-1
6.857805042E0,3.718544103E-1,5.180352402E-1,8.343023640E-1,1.050093637E0
6.867793042E0,1.884842657E-1,5.118219888E-1,6.828290731E-1,8.739242585E-1
6.877781042E0,-1.501747705E-1,3.408593434E-1,3.608731931E-1,5.186202997E-1
6.887769042E0,-4.092379989E-1,1.115771538E-1,-1.838423073E-2,4.245741171E-1
6.897757042E0,-3.803106536E-1,-3.170594215E-2,-3.971610135E-1,5.507979036E-1
6.907745042E0,-5.759492800E-2,-1.143499035E-1,-6.525077516E-1,6.649507065E-1
6.917733042E0,1.552095155E-1,5.274130046E-2,-7.550199670E-1,7.726103733E-1
6.927721042E0,2.932337719E-1,1.213718247E-1,-6.210608411E-1,6.974480147E-1
6.937709042E0,3.076968598E-1,1.641944933E-1,-3.449091250E-1,4.905094226E-1
6.947696042E0,1.197582856E-1,2.399966276E-1,-1.125974929E-1,2.908928044E-1
6.957684042E0,5.327909812E-2,3.367353022E-1,1.007638979E-1,3.555034306E-1
6.967672042E0,7.560084388E-2,3.738809091E-1,2.841542155E-1,4.756532770E-1
6.977660042E0,2.141621670E-1,2.813440436E-1,5.219400108E-1,6.304294406E-1
6.987648042E0,4.503410013E-1,2.607904959E-1,6.076748103E-1,8.000546077E-1
6.997636042E0,5.487594348E-1,1.759760481E-1,5.959909040E-1,8.290414009E-1
7.007624042E0,6.033107409E-1,1.843071610E-1,4.383224881E-1,7.681663773E-1
7.017612042E0,5.276553717E-1,1.752305281E-1,2.346405780E-1,6.034750452E-1
7.027600042E0,3.090306097E-1,1.126910484E-1,6.730028272E-2,3.357506786E-1
7.037588042E0,1.259564804E-1,1.015977108E-1,-1.571790040E-2,1.625859225E-1
7.047575042E0,5.883029848E-3,1.066894662E-1,3.040025890E-2,1.110919799E-1
7.057563042E0,1.075390667E-2,1.182926810E-1,9.750641406E-2,1.536759762E-1
7.067551042E0,2.055267066E-2,4.367519259E-2,2.707249153E-1,2.749943899E-1
7.077539042E0,6.015425429E-2,-6.633841574E-2,4.798295331E-1,4.881144339E-1
7.087527042E0,-9.405363321E-2,-1.738804060E-1,5.579085732E-1,5.918973370E-1
7.097515042E0,-2.006860891E-1,-2.030714607E-1,5.901045120E-1,6.555427214E-1
7.107503042E0,-2.052093489E-1,-2.486791581E-1,6.221191871E-1,7.007028497E-1
7.117491042E0,-3.169057859E-1,-2.875976408E-1,6.040460283E-1,7.402791935E-1
7.127479042E0,-3.209791026E-1,-3.134318089E-1,5.198355979E-1,6.866557594E-1
7.137466042E0,-2.737464640E-1,-2.116978580E-1,3.545055753E-1,4.954062096E-1
7.147454042E0,-1.856669310E-1,-1.872793007E-1,1.575695980E-1,3.072033918E-1
7.157442042E0,-1.545702687E-1,-1.946538091E-1,-1.830646276E-2,2.492332240E-1
7.167430042E0,9.500877589E-2,-2.294342172E-1,-1.586291134E-1,2.946691758E-1
7.177418042E0,4.016338411E-1,-2.222713780E-1,-3.010538381E-1,5.489514744E-1
7.187406042E0,7.060755560E-1,-1.315290231E-1,-4.510834515E-1,8.481266738E-1
7.197394042E0,7.506819177E-1,-7.644649744E-2,-6.395836508E-1,9.891585590E-1
7.207382042E0,6.598407447E-1,9.376478076E-2,-7.974514568E-1,1.039283632E0
7.217370042E0,5.869822450E-1,1.478947949E-1,-9.294722307E-1,1.109206768E0
7.227357042E0,4.693099536E-1,2.313725692E-1,-1.058180557E0,1.180479220E0
7.237345042E0,2.453800128E-1,2.908229649E-1,-1.112892369E0,1.176145728E0
7.247333042E0,6.807650059E-2,2.993943983E-1,-1.059858123E0,1.103435842E0
7.257321042E0,6.156971902E-3,2.472366500E-1,-9.370063680E-1,9.690948370E-1
7.267309042E0,9.230926260E-2,2.487306136E-1,-8.614235044E-1,9.013536331E-1
7.277297042E0,1.012954098E-1,2.308954364E-1,-8.329896641E-1,8.703133017E-1
7.287285042E0,-1.051718214E-1,1.905724525E-1,-7.382407969E-1,7.696612540E-1
7.297273042E0,-4.149400574E-1,1.486327136E-1,-6.136816549E-1,7.555607907E-1
7.307261042E0,-8.078814277E-1,9.931788146E-2,-4.149447352E-1,9.136277010E-1
7.317249042E0,-1.042481368E0,-1.426018953E-2,3.145802021E-3,1.042583642E0
7.327236042E0,-8.080384254E-1,-4.895698249E-2,5.201770753E-1,9.622406522E-1
7.337224042E0,-3.389908656E-1,-2.284097850E-2,9.804926956E-1,1.037690919E0
7.347212042E0,1.253498317E-1,3.415592551E-2,1.272730102E0,1.279344019E0
7.357200042E0,4.308890690E-1,1.140686524E-1,1.384738196E0,1.454708533E0
7.367188042E0,5.682378258E-1,2.079994941E-1,1.331025673E0,1.462117423E0
7.377176042E0,6.565464234E-1,1.635454524E-1,1.224657803E0,1.399137969E0
7.387164042E0,5.903489256E-1,3.390157163E-2,1.084740365E0,1.235444385E0
7.397152042E0,4.466019993E-1,2.381687880E-2,8.439496851E-1,9.551291329E-1
7.407140042E0,4.547446856E-1,8.083775640E-3,5.785071445E-1,7.358862634E-1
7.417127042E0,4.166168927E-1,3.541716993E-2,3.555013561E-1,5.488216699E-1
7.427115042E0,3.970513782E-1,1.830143416E-1,1.848953909E-1,4.746897426E-1
7.437103042E0,4.998473297E-1,2.757032347E-1,1.324984914E-1,5.860166182E-1
7.447091042E0,6.201223630E-1,3.905349487E-1,1.111982542E-1,7.412383847E-1
7.457079042E0,5.723484184E-1,4.437101126E-1,1.566024685E-1,7.409356984E-1
7.467067042E0,5.481543942E-1,3.482016921E-1,2.489592397E-1,6.954842639E-1
7.477055042E0,3.642094682E-1,3.767068684E-1,2.895055872E-1,5.986401978E-1
7.487043042E0,9.952662706E-2,4.078204876E-1,2.832145679E-1,5.063927242E-1
7.497031042E0,-9.264767021E-3,4.195424008E-1,2.285875404E-1,4.778639196E-1
7.507019042E0,2.583051369E-2,4.439363998E-1,1.637325633E-1,4.738724457E-1
7.517006500E0,-2.669546306E-3,4.345019174E-1,7.025838912E-2,4.401537049E-1
7.526994500E0,4.655348450E-2,3.666286075E-1,-4.330097079E-2,3.721004392E-1
7.536982500E0,1.556278838E-1,1.931838191E-1,-9.706436455E-2,2.663860301E-1
7.546970500E0,2.009414662E-1,4.896633804E-2,-1.699142396E-1,2.676677492E-1
7.556958500E0,3.296167557E-1,-1.113812721E-1,-2.156266022E-1,4.093260619E-1
7.566946500E0,4.643684717E-1,-2.591480130E-1,-3.059122896E-1,6.134966170E-1
7.576934500E0,4.845485285E-1,-2.282109797E-1,-4.643542922E-1,7.088670089E-1
7.586922500E0,4.079890336E-1,-2.660401261E-1,-5.727160621E-1,7.518218459E-1
7.596910500E0,3.239828172E-1,-4.628995049E-1,-2.881121957E-1,6.342313890E-1
7.606897500E0,3.335982710E-2,-1.049436631E0,-3.991397113E-1,1.123273176E0
7.616885500E0,-1.017216718E0,-6.747548869E0,-8.760711889E0,1.110469353E1
7.626873500E0,-2.769035219E-1,-5.940372323E0,-7.710598735E0,9.737455096E0
7.636861500E0,2.276215365E0,-3.497988591E0,3.830260713E0,5.664625115E0
7.646849500E0,2.968479359E0,-2.780214803E0,4.911872817E0,6.377143454E0
7.656837500E0,2.000681553E0,-7.785959405E-1,9.212183011E-1,2.336146715E0
7.666825500E0,1.022192260E0,5.506732285E-2,1.906936653E0,2.164328262E0
7.676813500E0,4.577701811E-1,8.677776736E-1,2.029021838E0,2.253779326E0
7.686801500E0,5.040124476E-2,1.263387421E0,1.214069080E0,1.752898112E0
7.696789500E0,2.164899436E-1,1.370692014E0,-7.974736762E-1,1.600508906E0
7.706776500E0,3.111052018E-1,1.494201581E0,-1.325301248E0,2.021348117E0
7.716764500E0,-6.298822430E-1,1.230229615E0,-7.870387352E-1,1.590486251E0
7.726752500E0,-2.302108152E0,8.550412685E-1,-2.315333676E-1,2.466658714E0
7.736740500E0,-3.535050875E0,1.125433477E0,3.971879107E-1,3.731078053E0
7.746728500E0,-3.405116095E0,1.596678713E0,8.872062171E-1,3.864108358E0
7.756716500E0,-3.559307172E0,1.007444851E0,1.416004427E0,3.960893991E0
7.766704500E0,-3.842392516E0,4.680696130E-2,1.773593824E0,4.232234184E0
7.776692500E0,-8.128552155E-1,4.907533014E-1,8.554470652E-1,1.278030550E0
7.786680500E0,1.872491291E0,1.465985842E0,5.022699773E-1,2.430558218E0
7.796667500E0,3.160425907E-1,8.736283976E-1,4.843494308E-1,1.047713638E0
7.806655500E0,-2.126547548E-1,1.405137962E0,1.139856219E-1,1.425702444E0
7.816643500E0,-1.099735549E-1,9.882414258E-1,2.514682800E-1,1.025646915E0
7.826631500E0,2.316779400E-1,8.151439619E-1,7.000713426E-1,1.099197085E0
7.836619500E0,4.814652917E-1,-1.323868096E-2,2.641421199E-1,5.493224456E-1
7.846607500E0,1.087189763E0,7.802758455E-1,1.068157661E0,1.712242029E0
7.856595500E0,1.176113342E0,3.174412447E-1,3.819085515E-1,1.276661928E0
7.866583500E0,7.428023560E-1,1.895819342E-1,-8.489361906E-1,1.143848463E0
7.876571500E0,1.809036429E-1,2.624107593E-1,-8.487110728E-1,9.065848111E-1
7.886559500E0,-5.696693704E-1,-4.941938031E-1,-8.919038701E-1,1.168008228E0
7.896546500E0,-8.790730324E-1,-5.861441928E-1,-7.015196979E-1,1.268252458E0
7.906534500E0,2.680451363E-2,-1.663562089E-1,-6.965214980E-1,7.166136109E-1
7.916522500E0,6.437680645E-1,5.749707484E-1,-7.845256019E-1,1.166408634E0
7.926510500E0,6.316007397E-1,7.603304082E-1,-9.281443280E-1,1.355903285E0
7.936498500E0,1.008641557E0,4.762171233E-1,-1.499116750E0,1.868553336E0
7.946486500E0,1.702985771E0,1.108736168E0,-1.849823974E0,2.747963821E0
7.956474500E0,3.071055017E0,6.928471076E-1,-2.779127805E0,4.199400837E0
7.966462500E0,3.770513279E0,1.628449559E-2,-3.179610622E0,4.932236742E0
7.976450500E0,1.979011480E0,-7.438184559E-1,-2.393931364E0,3.193847165E0
7.986437500E0,-1.006355164E1,-3.189546211E0,3.412211691E0,1.109465932E1
7.996425500E0,-3.352999277E0,-1.783135895E0,2.594701946E0,4.599419089E0
8.006413500E0,2.002809648E0,-3.140679860E-1,1.123425543E-2,2.027316303E0
8.016401500E0,7.089496087E-1,4.955176127E-1,-5.797654653E-1,1.041285382E0
8.026389500E0,-2.875328828E-1,4.970133305E-1,4.346486825E-1,7.201505999E-1
8.036377500E0,-1.034927934E-1,3.651059926E-1,1.379035991E0,1.430298363E0
8.046365500E0,1.177093408E0,8.569357663E-1,7.398014188E-1,1.633154597E0
8.056353500E0,1.561715287E0,1.169337296E0,-1.075782430E-1,1.953938952E0
8.066341500E0,-5.926931474E-1,2.573798150E-1,2.150909972E-1,6.810239888E-1
8.076329500E0,-1.708624241E0,2.389669329E-1,3.484180391E-2,1.725605964E0
8.086316500E0,-9.347853763E-1,6.684554476E-1,-9.909802616E-1,1.517464419E0
8.096304500E0,-8.130962670E-2,7.885432237E-1,-9.824702239E-1,1.262402239E0
8.106292500E0,4.492740306E-1,6.481813967E-1,-3.179347497E-1,8.503345123E-1
8.116280500E0,2.594231245E-1,5.439600402E-1,3.429514772E-1,6.934036332E-1
8.126268500E0,-2.611294882E-1,2.766528225E-1,6.944398892E-1,7.918157320E-1
8.136256500E0,3.241140872E-2,1.871629411E-1,1.007878715E-1,2.150317674E-1
8.146244500E0,3.618046546E-1,3.506855893E-1,-6.880787033E-1,8.528395468E-1
8.156232500E0,8.785290952E-1,-2.459935319E-1,-2.251965061E0,2.429747482E0
8.166220500E0,1.951015742E0,-7.443189776E-1,-3.146301958E0,3.776200362E0
8.176208500E0,1.203782805E0,-7.330291736E-1,1.125594860E0,1.803715221E0
8.186195500E0,-3.829274288E-1,-6.955707407E-1,1.888450681E0,2.048584400E0
8.196183500E0,-8.078146233E-1,-6.784167641E-1,1.094479487E0,1.520098391E0
8.206171500E0,-1.160584599E-1,-5.976094133E-1,1.802987192E0,1.902989593E0
8.216159500E0,5.948743781E-1,-7.916615438E-1,1.781905641E0,2.038575787E0
8.226147500E0,1.592709915E0,-8.898590988E-1,1.639163412E0,2.452637516E0
8.236135500E0,1.257502344E0,-9.724288005E-1,4.074404186E-1,1.641017249E0
8.246123500E0,1.160641024E0,-7.831854200E-1,2.005752844E-1,1.414460121E0
8.256111500E0,9.342821503E-1,-5.173277271E-1,2.932881510E-1,1.107487721E0
8.266099500E0,7.268015966E-1,1.306560338E-2,2.939330989E-1,7.840968929E-1
8.276087500E0,-3.961042754E0,-7.942331493E-2,-1.095672319E0,4.110555388E0
8.286074500E0,-8.713882123E0,1.866127181E-1,-1.148683761E0,8.791247940E0
8.296062500E0,-6.952295557E-2,-2.865597600E-1,-9.188887703E-1,9.650422321E-1
8.306050500E0,-3.647288471E-2,-7.514098960E-1,4.123456478E-3,7.523058594E-1
8.316038500E0,4.529005469E-1,-2.828713363E-1,1.399140472E0,1.497574425E0
8.326026500E0,4.673819073E-1,-2.096419770E-1,1.203406683E0,1.307892675E0
8.336014500E0,4.239245966E-1,-1.678174281E-1,9.737929559E-1,1.075242984E0
8.346002500E0,6.305783540E-1,-3.935532814E-1,1.307063198E-1,7.547167600E-1
8.355990500E0,5.735948986E-1,-2.701782006E-1,-1.260969597E-1,6.464578958E-1
8.365978500E0,-2.522481523E-1,-1.308805668E-1,1.540156603E-1,3.232331616E-1
8.375965500E0,-4.078698235E-1,1.467241824E-2,2.041958803E-1,4.563650187E-1
8.385953500E0,-5.237614185E-2,3.515129703E-1,-1.599850827E-1,3.897433197E-1
8.395941500E0,1.186210021E-2,3.754561490E-1,-2.459689736E-2,3.764479202E-1
8.405929500E0,-9.724206144E-1,1.707077068E-1,-3.773301816E-1,1.056939468E0
8.415917500E0,-2.756411080E-1,2.556215572E-1,-2.044098884E-1,4.279063021E-1
8.425905500E0,-3.950352582E-1,1.628870559E-1,-1.570860332E-1,4.552593437E-1
8.435893500E0,-3.055855764E-1,7.347026467E-3,-3.521982640E-1,4.663476605E-1
8.445881500E0,-3.836738259E-1,5.494160771E-2,-7.514315307E-2,3.948046078E-1
8.455869500E0,-1.577246954E-1,-2.544708252E-3,2.091934955E-1,2.620028123E-1
8.465857500E0,3.739140920E-1,1.700066257E-1,3.774026871E-2,4.124782768E-1
8.475844500E0,-5.253957152E-2,1.929633790E-1,3.493582714E-1,4.025499646E-1
8.485832500E0,-1.793061836E-1,4.776625550E-1,7.721832991E-3,5.102664506E-1
8.495820500E0,-1.404393026E-1,8.130184990E-1,-1.580677807E-1,8.400641052E-1
8.505808500E0,1.605664422E-1,1.193679255E0,-3.169471550E-1,1.245434560E0
8.515796250E0,1.666518880E0,1.301799535E0,-1.368815058E0,2.519051780E0
8.525784250E0,-7.449728425E-1,1.342833540E0,-2.984576744E-1,1.564373176E0
8.535772250E0,-3.639615463E-1,1.289427996E0,-7.322251815E-1,1.526841930E0
8.545760250E0,-2.022718247E0,1.958916646E-1,1.484650154E0,2.516733743E0
8.555748250E0,-1.563566662E0,4.487890041E-1,9.671587050E-1,1.892497883E0
8.565736250E0,-1.376062974E0,2.317274952E-1,6.400847572E-1,1.535237909E0
8.575723250E0,9.712812844E-1,2.241775703E-1,-2.473372221E-2,9.971231987E-1
8.585711250E0,8.944067708E-1,9.213048398E-2,4.092641652E-1,9.879011360E-1
8.595699250E0,3.453773408E-1,-3.720174015E-2,3.915207893E-1,5.234099783E-1
8.605687250E0,4.155103071E-1,-4.078660959E-1,2.938588393E-1,6.521936713E-1
8.615675250E0,4.157194912E-1,-9.657068413E-1,1.380094922E-1,1.060405120E0
8.625663250E0,2.155684224E-1,-1.053227965E0,-1.348058027E-1,1.083481193E0
8.635651250E0,6.528828505E-1,-1.124883839E0,-9.947283268E-2,1.304421141E0
8.645639250E0,8.791575247E-1,-1.007039055E0,-1.570176208E-1,1.345994110E0
8.655627250E0,5.929253550E-1,-7.972889042E-1,-5.508837283E-2,9.951204963E-1
8.665614250E0,2.098950152E-1,-3.302524942E-1,2.610927969E-1,4.704169172E-1
8.675602250E0,-1.826576614E-1,-7.214698130E-1,-4.677959633E-1,8.790424197E-1
8.685590250E0,-2.352587749E-1,-9.782321620E-1,-1.121636295E0,1.506769004E0
8.695578250E0,3.612911229E-1,9.159663320E-3,2.619242710E-1,4.463401154E-1
8.705566250E0,4.583435006E-1,-3.891789794E-2,2.968830192E-1,5.474786703E-1
8.715554250E0,2.517205873E-1,1.772174120E-1,-7.645351410E-2,3.171977380E-1
8.725542250E0,-2.901623757E-1,1.960220575E-1,-2.615734380E-1,4.370806731E-1
8.735530250E0,-2.167188621E-1,5.671805030E-1,6.961928844E-2,6.111527088E-1
8.745518250E0,2.598692670E-2,8.380597848E-1,2.853335989E-1,8.856832311E-1
8.755506250E0,4.921689123E-2,7.754168093E-1,9.517629862E-2,7.827848098E-1
8.765493250E0,1.280481756E-1,5.744374824E-1,1.373388165E-1,6.043481670E-1
8.775481250E0,-1.255936606E-1,2.395235878E-1,-2.065821290E-3,2.704617983E-1
8.785469250E0,-6.703736266E-1,1.994157815E-1,-3.638254523E-2,7.003507284E-1
8.795457250E0,-1.730158952E-1,2.792074710E-1,-2.486236095E-3,3.284775384E-1
8.805445250E0,8.036562297E-1,3.446875155E-1,-4.973933995E-2,8.758691802E-1
8.815433250E0,-1.277572766E-1,4.928167838E-1,4.491988939E-1,6.789476787E-1
8.825421250E0,3.576926002E-1,-5.830901921E-2,-6.497952282E-2,3.681932595E-1
8.835409250E0,4.866839316E-1,5.925123954E-1,-9.262691259E-2,7.723418498E-1
8.845397250E0,-1.383770335E0,-7.399557853E-1,4.874355912E-2,1.569946126E0
8.855385250E0,-2.461210012E-1,-9.143454838E-1,2.156628549E-2,9.471369044E-1
8.865372250E0,-7.499814212E-2,9.324367690E-1,2.284758586E-1,9.629456202E-1
8.875360250E0,1.995610848E-1,-2.985828048E-1,1.578046560E-2,3.594792636E-1
8.885348250E0,1.166339721E0,-8.503827918E-1,-5.862886190E-2,1.444623335E0
8.895336250E0,1.583088907E0,-5.913172245E-1,-1.042254496E-1,1.693130087E0
8.905324250E0,-2.686098312E-1,2.842881167E-1,4.500689596E-1,5.962659164E-1
8.915312250E0,-9.395288569E-1,5.768225616E-1,5.318370080E-1,1.224046300E0
8.925300250E0,3.050976263E-1,-8.913343513E-1,-3.209969366E-1,9.952891643E-1
8.935288250E0,2.935927910E-1,-7.117131490E-1,-3.132423592E-1,8.311757389E-1
8.945276250E0,-3.859799677E-1,-1.975967127E-1,-2.195155853E-1,4.860165517E-1
8.955264250E0,-2.578154325E-1,3.034453493E-1,-1.095341367E-1,4.129716750E-1
8.965251250E0,-3.807655670E-1,6.009721470E-1,-1.868185401E-2,7.116873963E-1
8.975239250E0,-5.081999311E-1,8.122361416E-1,1.306601268E-1,9.669885151E-1
8.985227250E0,-4.793485996E-1,8.660755491E-1,9.316134810E-2,9.942539784E-1
8.995215250E0,-2.550562777E-1,7.932484782E-1,2.228256941E-1,8.625242854E-1
9.005203250E0,-3.167729080E-2,3.074933767E-1,1.598652148E-1,3.480122331E-1
9.015191250E0,2.964450628E-1,-3.779815614E-2,-1.115216053E-1,3.189756171E-1
9.025179250E0,5.177224141E-1,-3.427117413E-1,-1.877353835E-1,6.486388903E-1
9.035167250E0,3.528170456E-1,1.255736339E-1,-1.838580948E-1,4.171958823E-1
9.045155250E0,-1.359702757E-1,7.671663880E-2,4.288815737E-2,1.619035286E-1
9.055142250E0,-2.841885678E-1,-3.018303484E-1,1.899479699E-1,4.560097944E-1
9.065130250E0,-2.028790873E-1,-5.274404866E-1,2.536662483E-1,6.194351915E-1
9.075118250E0,-4.611318916E-2,-7.283747900E-1,1.897772312E-2,7.300797318E-1
9.085106250E0,4.746608868E-2,-9.465998948E-1,1.053083539E-2,9.478477139E-1
9.095094250E0,2.181815431E-2,-1.534845577E0,-1.392169422E-1,1.541300858E0
9.105082250E0,1.417660359E-1,-1.752823344E0,-2.667610878E-1,1.778664882E0
9.115070250E0,6.454200491E-2,-1.530829124E0,-3.010316187E-1,1.561481192E0
9.125058250E0,1.387725538E-1,-9.181309712E-1,-1.413143384E-1,9.392507888E-1
9.135046250E0,1.071665990E-1,-7.065208215E-1,9.891968608E-2,7.214162844E-1
9.145034250E0,1.454013960E-1,-5.042492598E-1,1.356939948E-1,5.420532651E-1
9.155021250E0,4.165015563E-2,-1.261173080E0,3.415990162E-1,1.307280445E0
9.165009250E0,1.879470527E-1,-1.801165200E0,2.114551985E-1,1.823248056E0
9.174997250E0,1.214615795E-1,-2.069450657E0,3.403079510E-2,2.073291352E0
9.184985250E0,-9.910255775E-2,-2.101182911E0,-1.630338210E-1,2.109827237E0
9.194973250E0,-2.340374377E-1,-1.922153447E0,-2.364561385E-1,1.950732914E0
9.204961250E0,-2.945507111E-1,-1.480239015E0,-1.142534244E-1,1.513579039E0
9.214949250E0,-2.435011563E-1,-8.208701402E-1,2.796840191E-2,8.566812894E-1
9.224937250E0,-8.632946134E-2,-7.890232801E-3,7.991389632E-2,1.179036153E-1
9.234925250E0,-1.001291826E-1,6.724818403E-1,3.975989699E-2,6.810569199E-1
9.244913250E0,-5.583880448E-1,6.482568258E-1,-1.262570565E0,1.525161812E0
9.254900250E0,3.532627496E-1,4.663008302E-1,-1.510376734E0,1.619712602E0
9.264888250E0,5.722056001E-1,8.321026415E-1,1.726192786E0,1.999888894E0
9.274876250E0,6.164839330E-1,5.558070838E0,1.985404533E-1,5.595678886E0
9.284864250E0,-2.759873509E0,4.446170742E0,2.350563151E-1,5.238376420E0
9.294852250E0,-9.568369076E-1,1.243887541E0,-8.216302782E-1,1.771403228E0
9.304840250E0,2.345391288E0,5.291391027E-1,4.556027645E-1,2.447125327E0
9.314828250E0,1.602619776E0,-3.410218960E-1,7.213990617E-1,1.790280058E0
9.324816250E0,2.684316373E-1,-4.131934941E-1,-2.124901557E-1,5.365971242E-1
9.334804250E0,2.806638663E-1,-4.661359388E-1,-8.714690208E-2,5.510440107E-1
9.344792250E0,-3.897461593E-3,-9.496965802E-1,6.175302923E-2,9.517101561E-1
9.354779250E0,-7.044418439E-2,-6.003400630E-1,1.627309352E-1,6.259807757E-1
9.364767250E0,2.525061607E-2,1.696008289E-1,1.011229169E-1,1.990675240E-1
9.374755250E0,7.914425656E-2,5.209641105E-1,1.066982371E-1,5.376355007E-1
9.384743250E0,1.791082554E-1,4.462799639E-1,3.745667875E-2,4.823365796E-1
9.394731250E0,4.065349773E-2,1.970090675E-1,-1.423387706E-2,2.016627948E-1
9.404719250E0,-4.360034823E-2,5.451476097E-2,-8.503079474E-2,1.100140245E-1
9.414707250E0,-1.683504018E-1,-1.416774505E-1,3.393139243E-2,2.226335491E-1
9.424695250E0,-1.313109219E-1,1.209262669E-2,9.212989926E-2,1.608623889E-1
9.434683250E0,-1.033546530E-1,1.123396307E-1,4.400263667E-2,1.588666389E-1
9.444671250E0,-1.864925578E-1,1.082752311E-1,6.247399092E-2,2.245128044E-1
9.454658250E0,-3.126842424E-1,1.421715403E-1,6.816508591E-2,3.501866092E-1
9.464646250E0,-2.050399259E-2,-6.431937218E-5,5.846981764E-2,6.196077327E-2
9.474634250E0,-6.360630423E-2,-4.540304482E-2,9.691818416E-2,1.245003327E-1
9.484622250E0,-4.249376267E-2,1.005573158E0,1.061825126E-1,1.012056234E0
9.494610250E0,9.064119816E-2,1.237115881E0,-4.717709005E-2,1.241328807E0
9.504598250E0,1.977996111E-2,-6.976728147E-1,-2.824906826E-1,7.529539090E-1
9.514586500E0,8.850988805E-2,-1.738915157E-1,1.398577970E-1,2.400676215E-1
9.524574500E0,8.357513040E-2,1.017651751E0,2.600490689E-2,1.021408901E0
9.534562500E0,3.328600600E-2,1.134724118E0,-6.958771348E-2,1.137343058E0
9.544550500E0,-2.012756346E-1,1.195900612E0,1.026700902E-1,1.217058463E0
9.554537500E0,-1.552602401E-1,6.466845095E-1,5.396570742E-2,6.672472515E-1
9.564525500E0,-1.552777818E-1,1.719034624E-1,1.131453770E-1,2.578058693E-1
9.574513500E0,-1.413859668E-1,1.088646305E-1,4.490778565E-2,1.840060015E-1
9.584501500E0,3.094096555E-1,-1.179436022E-1,2.102190971E-2,3.317935335E-1
9.594489500E0,4.126802547E-1,-2.251312512E-1,1.171168059E-1,4.844640535E-1
9.604477500E0,9.898532107E-2,2.606396377E-1,2.224386084E-1,3.566651778E-1
9.614465500E0,-3.039679442E-1,6.321021384E-1,1.992625844E-1,7.291469002E-1
9.624453500E0,-3.696712062E-1,8.553073168E-2,8.765034735E-2,3.894289282E-1
9.634441500E0,-1.013380945E-2,-1.262402165E-1,4.128718972E-3,1.267135852E-1
9.644429500E0,-4.043349624E-3,-2.912585825E-1,-9.876064181E-2,3.075736902E-1
9.654416500E0,2.039216459E-3,-2.830748194E-1,-9.854604900E-2,2.997446173E-1
9.664404500E0,2.094846869E-1,4.452835983E-1,4.806235850E-2,4.944403981E-1
9.674392500E0,-3.977553830E-2,8.311659175E-1,-1.143539965E-2,8.321956767E-1
9.684380500E0,-9.531911686E-2,6.659937698E-1,8.505944610E-2,6.781360813E-1
9.694368500E0,-6.022295907E-2,3.203455567E-1,2.278724259E-1,3.977108535E-1
9.704356500E0,-2.384038460E-1,2.036824948E-1,1.992251623E-1,3.715018408E-1
9.714344500E0,8.557502434E-2,-3.093457747E-1,8.932382047E-2,3.331615794E-1
9.724332500E0,1.467259365E-1,-9.776643974E-1,-5.476736069E-2,9.901291017E-1
9.734320500E0,1.641908388E-1,-1.525459042E0,-1.038120514E-1,1.537777897E0
9.744308500E0,1.856050967E-1,-1.672002545E0,-8.120145321E-2,1.684231409E0
9.754295500E0,3.309524059E-2,-1.600074776E0,-8.835259795E-2,1.602853944E0
9.764283500E0,-3.142834559E-2,-1.291817168E0,-8.368301153E-2,1.294906245E0
9.774271500E0,1.313736333E-1,-1.352999509E0,-1.008381575E-1,1.363097589E0
9.784259500E0,7.294094548E-2,-1.543355615E0,-1.058410352E-1,1.548699215E0
9.794247500E0,1.271129134E-1,-1.844621122E0,-9.242693782E-2,1.851304274E0
9.804235500E0,2.017649004E-1,-1.855472385E0,-6.730846882E-2,1.867623430E0
9.814223500E0,3.079690477E-1,-1.368286470E0,7.904850841E-3,1.402538871E0
9.824211500E0,5.092085758E-1,-6.712188417E-1,-1.209250975E-1,8.511468653E-1
9.834199500E0,-9.109698862E-2,-9.172252375E-1,2.176333666E-3,9.217404917E-1
9.844187500E0,-5.121175656E-1,6.438725835E-1,-2.619909292E-1,8.634092609E-1
9.854174500E0,-8.732421890E-1,1.331371243E0,-3.241526788E-1,1.624861922E0
9.864162500E0,-8.604707006E-1,1.289589379E0,-1.184037781E-1,1.554821548E0
9.874150500E0,-1.304139590E-1,1.172130511E0,9.698952019E-2,1.183344710E0
9.884138500E0,2.775690812E-1,1.078062260E0,2.455497283E-1,1.139981359E0
9.894126500E0,2.632352167E-1,9.025750387E-1,1.181622881E-1,9.475741692E-1
9.904114500E0,3.595660481E-1,6.277208197E-1,-7.517765164E-3,7.234484690E-1
9.914102500E0,2.547257638E-1,-2.951329476E-1,5.669635713E-2,3.939583079E-1
9.924090500E0,1.602096158E-1,-8.090049702E-1,1.297766125E-1,8.348641398E-1
9.934078500E0,3.021107224E-1,3.445197004E-1,1.032355160E-1,4.697044648E-1
9.944066500E0,3.691230297E-2,8.419902831E-1,-2.741408587E-2,8.432447374E-1
9.954053500E0,3.383198977E-3,2.715020102E-1,5.267113388E-2,2.765845909E-1
9.964041500E0,1.229929653E-1,-6.161211133E-3,6.587999403E-2,1.396617473E-1
9.974029500E0,-9.660184979E-3,7.872954279E-1,1.254660451E-1,7.972886168E-1
9.984017500E0,-5.166664070E-1,1.177616953E0,-1.585098302E-1,1.295704917E0
9.994005500E0,6.495174855E-2,1.134424156E-1,-3.582179725E-2,1.355400769E-1
1.000399350E1,1.752027538E-1,1.245187962E-1,2.576803619E-1,3.355593904E-1
1.001398150E1,-1.405308115E-1,-1.678086573E-1,-1.112339222E-1,2.455231963E-1
1.002396950E1,-7.853950828E-2,-3.161601198E-1,5.883468390E-3,3.258224837E-1
1.003395750E1,-1.410918519E-1,-2.472202778E-3,1.029261982E-1,1.746620301E-1
1.004394550E1,-1.392374074E-1,2.692806530E-1,1.064403749E-1,3.212922021E-1
1.005393350E1,-6.951871634E-2,2.501088023E-1,8.072081208E-3,2.597160438E-1
1.006392050E1,-1.171305469E-1,3.392215383E-1,3.018800497E-2,3.601418230E-1
1.007390850E1,-1.961197060E-1,5.233298939E-1,5.654666841E-2,5.617247037E-1
1.008389650E1,-1.270366073E-1,4.371103603E-1,-1.581554890E-2,4.554710729E-1
1.009388450E1,-1.707363582E-1,4.333628798E-1,1.816788375E-2,4.661377066E-1
1.010387250E1,6.679157495E-2,4.994451874E-1,-7.580915093E-3,5.039484895E-1
1.011386050E1,1.397928929E-1,4.864976978E-1,7.561034560E-2,5.117997531E-1
1.012384850E1,1.193758777E-1,2.750577021E-1,-2.226034999E-3,2.998537892E-1
1.013383650E1,4.664908648E-2,1.305677408E-1,-1.345678210E-2,1.393023948E-1
1.014382450E1,1.703820169E-1,-2.739917547E-1,-7.014787674E-2,3.301851570E-1
1.015381250E1,2.527932590E-1,-2.556619030E-1,-6.585718989E-3,3.595981259E-1
1.016379950E1,2.520231807E-1,2.173275572E-1,3.749117732E-2,3.348918320E-1
1.017378750E1,3.182522535E-2,6.194914484E-1,8.429521501E-2,6.260097307E-1
1.018377550E1,-2.215514396E-1,7.318813652E-1,9.455240071E-2,7.705034261E-1
1.019376350E1,2.195220172E-2,3.629062700E-1,1.603914642E-1,3.973767504E-1
1.020375150E1,-1.298681214E-1,8.689857084E-1,3.079781109E-1,9.310490895E-1
1.021373950E1,9.251713112E-2,1.627239186E0,3.021507758E-1,1.657637439E0
1.022372750E1,2.754159902E-1,-4.171836340E-1,1.166022509E-1,5.133149492E-1
1.023371550E1,5.561286807E-2,-1.160616174E0,-1.254455799E-1,1.168699828E0
1.024370350E1,2.543319538E-2,-9.033883864E-1,-6.607236743E-2,9.061583646E-1
1.025369150E1,1.294998930E-1,-4.078748667E-1,-3.483654141E-2,4.293549974E-1
1.026367850E1,1.185575598E-1,-3.081307232E-1,-5.708519697E-2,3.350509772E-1
1.027366650E1,-3.375027493E-2,-7.138222396E-1,-5.158881426E-2,7.164793623E-1
1.028365450E1,-2.112569779E-2,-1.056213554E0,-8.434316218E-2,1.059786363E0
1.029364250E1,-6.191338912E-2,-1.308742518E0,-8.510973215E-2,1.312967598E0
1.030363050E1,-3.269957413E-1,-1.289525059E0,-1.765952682E-1,1.342008563E0
1.031361850E1,-2.243228737E-1,-2.949850130E-1,-3.692809045E-2,3.724252857E-1
1.032360650E1,-7.383878544E-2,2.431617254E-1,6.309145689E-4,2.541263249E-1
1.033359450E1,-6.546835005E-3,5.932737029E-1,1.825734615E-1,6.207653473E-1
1.034358250E1,-1.331640507E-1,-5.119120359E-2,-8.092429519E-2,1.640181249E-1
1.035357050E1,-1.151727529E-1,-1.848608923E-1,4.573984444E-2,2.225543661E-1
1.036355850E1,-1.070995022E-1,-4.316636789E-1,1.100931305E-1,4.581750020E-1
1.037354550E1,5.026164249E-2,-7.771984559E-1,9.554818153E-2,7.846611546E-1
1.038353350E1,-3.346025303E-2,-9.183584279E-1,3.886644244E-2,9.197893188E-1
1.039352150E1,-1.226200591E-1,-1.011377104E0,-1.157748699E-2,1.018849039E0
1.040350950E1,-2.252261223E-1,-9.402223366E-1,2.941324890E-2,9.672693460E-1
1.041349750E1,-1.417395772E-1,-1.045024906E0,-1.834563911E-2,1.054752921E0
1.042348550E1,1.197041988E-2,-1.136741992E0,-5.233316481E-2,1.138008967E0
1.043347350E1,1.698426113E-2,-1.037118301E0,-6.926670134E-2,1.039567560E0
1.044346150E1,-1.108054675E-1,-7.169926000E-1,-1.216706175E-1,7.356357653E-1
1.045344950E1,-1.868486533E-1,-5.374175906E-1,-1.571591234E-1,5.902788121E-1
1.046343750E1,-6.568849772E-2,-3.648048609E-1,-1.201029789E-1,3.896438000E-1
1.047342450E1,-2.449354783E-2,-2.856744915E-1,-8.192767739E-2,2.981979096E-1
1.048341250E1,-1.415372635E-1,-1.309595042E-1,-7.668740273E-2,2.075190267E-1
1.049340050E1,5.097894967E-2,1.764555198E-1,6.427317917E-2,1.945930249E-1
1.050338850E1,6.580487193E-1,1.626782518E0,2.997510785E-1,1.780252844E0
1.051337650E1,-4.910553101E-1,2.266091934E0,-1.629443586E-2,2.318743945E0
1.052336413E1,-4.642022645E-1,2.001726451E0,-2.501181579E-1,2.070012468E0
1.053335212E1,1.925605059E-2,9.146933931E-1,2.262229264E-2,9.151757028E-1
1.054334013E1,8.272246018E-2,2.051454681E-1,1.649745119E-1,2.759424905E-1
1.055332813E1,1.158868441E-1,-2.080106038E-1,8.668204844E-2,2.534007684E-1
1.056331612E1,1.056425223E-1,-2.135941100E-1,8.940918982E-2,2.545128476E-1
1.057330313E1,1.768570773E-1,-5.417445302E-2,8.353858531E-2,2.029581050E-1
1.058329113E1,1.952195272E-1,4.171929896E-2,1.077279317E-1,2.268401882E-1
1.059327913E1,4.977208436E-2,3.500903428E-2,1.265659064E-1,1.404344029E-1
1.060326713E1,-5.917966962E-3,1.411178720E-1,1.109193420E-1,1.795894668E-1
1.061325513E1,-7.732562631E-2,2.070048827E-1,2.437061012E-2,2.223155428E-1
1.062324313E1,-1.056796521E-1,2.199839473E-1,4.849680662E-2,2.488233634E-1
1.063323113E1,-1.036571002E-1,2.014430112E-1,1.244217324E-1,2.584663395E-1
1.064321912E1,7.543639094E-3,3.459832585E-1,1.601271701E-1,3.813161841E-1
1.065320713E1,9.160423458E-2,1.109575244E0,1.055784953E-1,1.118344927E0
1.066319513E1,-2.825566100E-1,3.628840506E-2,-1.406483406E-1,3.177059047E-1
1.067318312E1,-2.147389948E-3,1.135885960E-1,7.565303028E-2,1.364930819E-1
1.068317012E1,-7.146496207E-2,3.499365610E-1,-3.824079037E-2,3.592007733E-1
1.069315813E1,1.056051001E-1,2.190349442E-1,-2.068394065E-2,2.440421466E-1
1.070314613E1,2.346623589E-1,1.595623291E-1,-2.021148562E-2,2.844908851E-1
1.071313413E1,-7.735866308E-4,4.759341180E-1,2.425892830E-2,4.765525981E-1
1.072312213E1,2.553771436E-2,4.025398672E-1,-1.535478830E-2,4.036412876E-1
1.073311013E1,2.563010037E-2,2.248687112E-1,1.227926981E-1,2.574895844E-1
1.074309813E1,9.754295915E-2,9.261755705E-1,1.962413281E-1,9.517491661E-1
1.075308613E1,-1.256721595E-1,1.007837784E0,9.974005044E-2,1.020528573E0
1.076307413E1,-2.892544493E-2,6.340802515E-1,6.832413018E-2,6.384063231E-1
1.077306213E1,-1.967946209E-1,6.501285195E-1,8.498635590E-2,6.845567145E-1
1.078304913E1,-3.874101967E-2,1.876412433E-1,-7.062851787E-3,1.917289406E-1
1.079303712E1,2.802668403E-1,-1.003487456E-1,-3.833142221E-2,3.001477477E-1
1.080302513E1,1.180133303E-1,4.296592534E-2,4.853130519E-2,1.346421347E-1
1.081301313E1,-1.699165785E-1,-8.927470386E-2,1.031735355E-1,2.179137325E-1
1.082300112E1,-2.795705831E-1,-1.737324715E-2,9.095519364E-2,2.945070252E-1
1.083298913E1,-3.685754380E-1,2.063371307E-1,7.590972304E-2,4.291679753E-1
1.084297713E1,-1.413023517E-1,1.834207231E-1,-1.102200150E-2,2.317994839E-1
1.085296512E1,2.309971780E-2,1.286279270E-1,2.162885070E-2,1.324633827E-1
1.086295313E1,6.488976806E-2,-6.895671120E-1,-1.555417836E-1,7.098638816E-1
1.087294113E1,3.402436316E-2,-1.342173682E0,-1.080430967E-1,1.346945121E0
1.088292913E1,-8.794124633E-2,-1.293149456E0,-1.882043302E-2,1.296272883E0
1.089291613E1,-1.581551966E-1,-8.838303271E-1,4.710458457E-2,8.991039735E-1
1.090290412E1,-1.511128101E-1,5.337952405E-2,7.162254453E-3,1.604236667E-1
1.091289213E1,-6.457811147E-2,1.914843258E-1,-1.403483784E-1,2.460370843E-1
1.092288013E1,2.219679075E-1,-3.724530190E-2,-1.072800350E-1,2.493310458E-1
1.093286812E1,2.696452269E-1,-1.932835141E-1,-2.592187643E-2,3.327747119E-1
1.094285613E1,2.347051898E-1,-6.304640409E-1,-3.106976509E-2,6.734513816E-1
1.095284413E1,6.421792299E-2,-8.012565324E-1,9.561542451E-2,8.094926076E-1
1.096283212E1,-1.531450099E-1,1.358437420E0,2.540971881E-1,1.390457118E0
1.097282013E1,-8.323833078E-2,-9.967225197E-1,-1.471603847E-1,1.010960227E0
1.098280813E1,1.521635547E-2,9.155602428E-1,1.174805027E-1,9.231921600E-1
1.099279513E1,3.611059123E-1,9.489589539E-1,-1.149854958E-2,1.015407698E0
1.100278313E1,4.675379549E-1,2.137385362E-1,-1.020011687E-1,5.240993604E-1
1.101277112E1,3.267315933E-1,-1.398729998E-1,5.598124266E-3,3.554565081E-1
1.102275913E1,3.847467899E-3,-3.759768435E-1,-1.174483430E-1,3.939130655E-1
1.103274713E1,-2.978124341E-1,-5.880790365E-1,-1.698048967E-1,6.807076480E-1
1.104273512E1,-2.740592900E-1,-4.498897424E-1,-1.357173836E-1,5.439930909E-1
1.105272313E1,-1.102470584E-1,1.584566206E-1,-2.554531574E-2,1.947189710E-1
1.106271113E1,2.436716026E-1,3.760344386E-1,2.869111776E-2,4.489999211E-1
1.107269912E1,6.776382074E-2,2.320748198E-1,1.104556578E-1,2.658027647E-1
1.108268713E1,-2.340321752E-1,-2.583218014E-1,1.121308851E-1,3.661619144E-1
1.109267513E1,-3.409121145E-1,-3.421746746E-1,3.934532940E-2,4.846159641E-1
1.110266213E1,-2.981264296E-1,-2.061804253E-1,5.817336380E-2,3.671156168E-1
1.111265013E1,-8.044223611E-1,8.670596355E-1,2.336278403E-1,1.205599317E0
1.112263812E1,7.202913067E-1,1.232931029E0,-9.658430815E-2,1.431176794E0
1.113262613E1,4.974220508E-1,-1.320676978E0,-1.058158922E-1,1.415207893E0
1.114261413E1,-3.938478349E-1,4.738875926E-2,4.152043515E-1,5.742442556E-1
1.115260212E1,3.123015422E-1,4.518962145E-2,2.226257193E-1,3.861820374E-1
1.116259013E1,-3.400834179E-1,-8.145691806E-1,1.878634375E-1,9.024812199E-1
1.117257813E1,6.283096343E-2,-1.288873095E0,-2.662816161E-1,1.317591547E0
1.118256612E1,1.075697646E-1,-7.101016563E-1,-2.556776905E-1,7.623560179E-1
1.119255413E1,1.332405031E-1,-2.394271088E-1,-1.906835496E-1,3.338241875E-1
1.120254113E1,2.489071995E-1,-4.005664319E-2,-1.789709920E-1,3.091762355E-1
1.121252913E1,3.177660576E-1,-1.252532065E-1,-8.953081191E-2,3.530997017E-1
1.122251713E1,1.715868357E-1,-3.920727664E-1,1.083331186E-1,4.414738508E-1
1.123250512E1,1.290100425E-1,-3.228659990E-1,9.720528245E-2,3.610192673E-1
1.124249313E1,1.400234194E-1,1.078501385E-1,5.352073431E-2,1.846691078E-1
1.125248113E1,-2.721057352E-1,1.869091719E-1,6.501051307E-2,3.364564407E-1
1.126246912E1,-4.470843945E-1,3.909480545E-1,2.868877888E-2,5.945989263E-1
1.127245713E1,-1.511145642E-1,1.189767175E0,-1.290954119E-1,1.206253360E0
1.128244513E1,-8.844951555E-2,3.031860253E-1,-1.782704955E-1,3.626643797E-1
1.129243312E1,1.351193596E-1,2.448860693E-1,4.855352461E-2,2.838729875E-1
1.130242113E1,1.133187470E-1,9.622622466E-1,3.038961697E-1,1.015451945E0
1.131240813E1,-6.158527261E-1,2.366455298E0,9.352399242E-1,2.618025778E0
1.132239613E1,3.957443793E-1,2.402018648E-1,-1.749796826E-1,4.949024540E-1
1.133238413E1,-2.951563364E-1,-5.346653062E-1,-2.559361374E-1,6.621839314E-1
1.134237213E1,-2.571181521E-2,2.034187853E-1,-1.836861867E-1,2.752833356E-1
1.135236013E1,1.635360968E-1,5.634186968E-1,-2.026621556E-1,6.206904480E-1
1.136234813E1,4.339264052E-1,4.658561495E-1,-9.465121865E-2,6.436403734E-1
1.137233613E1,-2.408713710E-1,9.815030944E-1,5.697614640E-1,1.160170448E0
1.138232413E1,6.637864459E-1,-1.296292627E-1,9.336307704E-2,6.827392296E-1
1.139231213E1,-1.406269982E-1,-2.199994132E0,6.795049310E-2,2.205531093E0
1.140230012E1,-1.786341923E-1,-7.053583950E-1,4.860620803E-1,8.750411338E-1
1.141228813E1,3.072866777E-1,4.657807204E-1,7.248150051E-1,9.147314214E-1
1.142227513E1,2.181107917E-1,1.082749095E0,3.584588778E-1,1.161210871E0
1.143226313E1,2.068185027E-1,4.879940003E-1,-1.587811410E-2,5.302491414E-1
1.144225112E1,-4.597319220E-1,-8.139867979E-1,-2.866989237E-1,9.778160462E-1
1.145223913E1,-1.543015891E-1,-1.933117561E0,-3.764215243E-1,1.975460870E0
1.146222713E1,1.791056241E-1,-2.701516542E0,-3.522924042E-1,2.730271121E0
1.147221513E1,3.123203994E-1,-2.400644845E0,-2.931402165E-1,2.438559183E0
1.148220313E1,3.522874340E-2,-1.555893214E0,2.653858227E-1,1.578757231E0
1.149219113E1,-1.577729349E-1,-1.585790320E0,1.628034407E-1,1.601913918E0
1.150217913E1,-2.971538915E-1,-1.642148124E0,-9.181356490E-2,1.671340966E0
1.151216713E1,-4.178436385E-1,-1.612468826E0,-2.181777424E-1,1.679955520E0
1.152215479E1,-2.710077743E-1,-1.599932104E0,-3.644399947E-1,1.663142946E0
1.153214279E1,3.214170590E-2,-1.765425556E0,-2.416695160E-1,1.782179743E0
1.154213079E1,6.289586753E-2,-1.963904906E0,-1.469159710E-1,1.970396577E0
1.155211879E1,1.736440323E-1,-1.423344729E0,-8.007060170E-2,1.436131529E0
1.156210679E1,3.714915906E-1,-2.299902874E-1,-1.001242125E-1,4.482481368E-1
1.157209479E1,4.688997714E-1,1.158396571E0,-1.259016627E-1,1.256025812E0
1.158208279E1,-7.256774694E-2,2.304666893E0,-2.623464400E-1,2.320685507E0
1.159207079E1,-6.609039147E-1,2.310740981E0,-3.665122479E-1,2.431182653E0
1.160205879E1,-4.176332849E-1,1.774497511E0,-4.750991356E-1,1.883873182E0
1.161204679E1,-2.618821710E-1,1.712900018E0,-1.488718647E-1,1.739187044E0
1.162203479E1,-4.401690388E-1,1.713922403E0,1.189440608E-1,1.773535023E0
1.163202279E1,-4.845032126E-1,1.279042171E0,1.929475915E-1,1.381275140E0
1.164200979E1,-1.977357303E-1,6.284596154E-1,3.471053392E-1,7.446764557E-1
1.165199779E1,-2.126250802E-1,3.553414348E-1,3.479023147E-1,5.408446917E-1
1.166198579E1,-2.473870696E-1,2.355223382E-1,3.850309646E-1,5.147037766E-1
1.167197379E1,3.270186916E-2,-7.764196068E-2,1.423218137E-1,1.653879831E-1
1.168196179E1,6.375365406E-2,-1.912004435E-1,5.781200588E-2,2.096768133E-1
1.169194979E1,1.215641981E-1,-5.539453304E-1,3.618490934E-2,5.682804158E-1
1.170193779E1,2.140804522E-1,-5.911423928E-1,6.644191146E-2,6.322138057E-1
1.171192579E1,2.430067742E-1,-5.802922994E-1,9.747016132E-2,6.366253823E-1
1.172191379E1,1.600442858E-1,-4.410832509E-1,4.238646626E-2,4.711318501E-1
1.173190179E1,2.070007896E-1,-2.417630714E-1,6.990989506E-2,3.258620921E-1
1.174188879E1,1.535044675E-1,4.626521677E-2,4.950252771E-3,1.604013616E-1
1.175187679E1,1.180523604E-1,3.671890631E-1,-1.030425578E-1,3.992266732E-1
1.176186479E1,-9.725249872E-2,8.273003232E-1,-7.566940248E-2,8.364267642E-1
1.177185279E1,-1.422493082E-1,9.426182333E-1,-9.032837212E-2,9.575610760E-1
1.178184079E1,-6.930324644E-2,5.315317833E-1,-7.166172087E-2,5.407997586E-1
1.179182879E1,-6.124607563E-2,2.444647774E-1,5.290560722E-3,2.520755823E-1
1.180181679E1,-1.260659695E-3,2.914056399E-1,1.348104805E-1,3.210805225E-1
1.181180479E1,-7.312162444E-2,3.656120691E-1,1.766361988E-1,4.125764217E-1
1.182179279E1,-9.966549844E-2,4.184931180E-1,1.379469270E-1,4.517732352E-1
1.183178079E1,1.890697181E-3,3.607384148E-1,8.966822147E-2,3.717205518E-1
1.184176879E1,1.094829735E-1,2.713236701E-1,1.113602221E-2,2.927918484E-1
1.185175679E1,1.885928777E-1,2.023493296E-1,-2.619318724E-2,2.778463744E-1
1.186174379E1,1.463737880E-1,5.139965683E-2,-1.674291730E-2,1.560369694E-1
1.187173179E1,7.586645365E-2,-9.489183158E-2,6.776279747E-2,1.391113770E-1
1.188171979E1,4.881533369E-2,-1.087497327E-1,1.466522616E-1,1.889876372E-1
1.189170779E1,1.563253105E-3,-3.822441816E-2,1.609077734E-1,1.653930514E-1
1.190169579E1,-8.499878123E-2,6.734267503E-2,9.241056561E-2,1.424764589E-1
1.191168379E1,5.076114088E-2,1.097282642E-1,3.043124914E-2,1.246717543E-1
1.192167179E1,1.304646836E-1,1.202903822E-1,-4.809334874E-3,1.775216590E-1
1.193165979E1,1.029050021E-1,-9.397031039E-2,1.423738539E-2,1.400805548E-1
1.194164779E1,8.878763080E-2,-2.642754364E-1,1.240662217E-2,2.790675079E-1
1.195163579E1,5.040636107E-2,-2.339994308E-1,4.921601415E-2,2.443742026E-1
1.196162279E1,2.175953597E-2,-1.479009345E-1,2.970444024E-2,1.524156081E-1
1.197161079E1,3.688014328E-2,5.825844079E-2,-1.661193967E-3,6.897064925E-2
1.198159879E1,-1.325341594E-1,2.421524960E-1,4.521944225E-2,2.797283194E-1
1.199158679E1,-8.964804858E-2,2.979381493E-1,-6.467546761E-2,3.177842500E-1
1.200157479E1,-4.517061800E-2,5.184331432E-1,-5.689340830E-4,5.203975715E-1
1.201156279E1,-2.861685812E-2,5.872016618E-1,8.553891778E-3,5.879607854E-1
1.202155079E1,1.048247892E-1,4.074374950E-1,-3.111888170E-2,4.218553467E-1
1.203153879E1,6.795955628E-2,1.578528956E-1,-3.447693765E-2,1.752846176E-1
1.204152679E1,-9.692929387E-2,3.662540933E-1,3.038388669E-2,3.800796357E-1
1.205151479E1,9.716420576E-2,3.570046753E-1,9.784847617E-2,3.827107855E-1
1.206150279E1,2.083396558E-1,4.550741762E-1,7.573547602E-2,5.061953974E-1
1.207148979E1,2.444641927E-1,6.648368981E-1,1.277979147E-1,7.197938244E-1
1.208147779E1,3.087856114E-2,2.695768145E-1,9.258130431E-2,2.866992193E-1
1.209146579E1,4.255938305E-1,5.405180767E-1,1.177050358E-1,6.979572876E-1
1.210145379E1,2.013560338E-1,5.364054376E-1,3.184873116E-1,6.555220923E-1
1.211144179E1,-6.727519816E-1,-1.242395624E0,-1.679390502E-1,1.422795010E0
1.212142979E1,2.170267180E-2,-9.902230471E-2,1.906777024E-3,1.013906238E-1
1.213141779E1,3.570496988E-1,3.582624114E-1,1.268220145E-1,5.214597455E-1
1.214140579E1,2.022436412E-1,-6.033741832E-2,4.675550580E-2,2.161693127E-1
1.215139379E1,4.439498484E-1,-1.984872437E-1,-2.565290451E-2,4.869771302E-1
1.216138179E1,3.571964639E-1,-5.230100513E-1,-5.022348940E-2,6.353355227E-1
1.217136979E1,2.351874389E-1,-1.023222978E0,-1.937445670E-1,1.067630719E0
1.218135679E1,-1.069306639E-1,-1.105405594E0,-7.870703101E-2,1.113351019E0
1.219134479E1,-3.272968729E-1,-8.493045652E-1,-1.824074006E-1,9.282854880E-1
1.220133279E1,-5.617871775E-1,-8.928090191E-1,-3.436081195E-1,1.109404938E0
1.221132079E1,-4.914798179E-1,-2.985176083E-1,-1.498249608E-1,5.942328608E-1
1.222130879E1,-4.110352868E-1,2.623470247E-2,-5.327982903E-3,4.119061228E-1
1.223129679E1,-3.904291141E-1,2.826143512E-1,1.137377000E-1,4.952191727E-1
1.224128479E1,-4.283706732E-1,4.172538006E-1,1.424937218E-1,6.147411069E-1
1.225127279E1,-2.942757457E-3,-4.895581305E-3,-1.409670138E-1,1.410826904E-1
1.226126079E1,7.485444680E-2,2.009158847E-1,2.967286527E-2,2.164505945E-1
1.227124879E1,2.725224955E-1,1.149071431E-1,-1.467943490E-2,2.961210022E-1
1.228123679E1,4.501142755E-2,1.206970561E-1,-3.967452765E-2,1.347882639E-1
1.229122479E1,-3.907545117E-1,4.500835776E-1,2.320175171E-2,5.964919417E-1
1.230121179E1,-4.701626238E-1,6.737182340E-1,-3.795369208E-2,8.224291060E-1
1.231119979E1,1.040190428E-2,8.903251219E-1,-8.317547321E-2,8.942623673E-1
1.232118779E1,1.165528420E-1,3.992584974E0,1.039537295E0,4.127342623E0
1.233117579E1,5.289151543E-1,9.623853305E-1,3.788036799E-1,1.161649255E0
1.234116379E1,-1.439683896E-1,-1.450333723E0,-4.741442853E-1,1.532647255E0
1.235115179E1,-7.105609551E-2,7.258245268E-1,5.015671420E-1,8.851213535E-1
1.236113979E1,3.600797260E-1,9.156634462E-1,5.028991377E-1,1.104990723E0
1.237112779E1,6.100476104E-1,8.494337887E-2,-1.528321838E-1,6.346110155E-1
1.238111579E1,-1.404613759E-1,-1.091838592E0,-3.346572018E-1,1.150580876E0
1.239110379E1,-4.526423192E-1,-2.374110765E0,-4.404099441E-1,2.456674157E0
1.240109179E1,-6.530737621E-1,-1.987582621E0,-4.534521586E-1,2.140702893E0
1.241107879E1,-3.796629283E-1,-9.350159758E-1,-1.556031793E-1,1.021083328E0
1.242106679E1,-1.437789398E-1,-5.809667757E-1,-4.705195963E-2,6.003404575E-1
1.243105479E1,-2.740303463E-1,-3.194801688E-1,4.528376162E-2,4.233329990E-1
1.244104279E1,-3.453014731E-2,-8.395724595E-3,-4.677187800E-3,3.584264709E-2
1.245103079E1,4.641380914E-1,-1.636542106E-1,-1.046470338E-1,5.031479605E-1
1.246101879E1,2.001437598E-1,-3.855385029E-1,-2.430389339E-1,4.977603693E-1
1.247100679E1,2.246457861E-1,-1.003447110E0,-1.052358484E-1,1.033656817E0
1.248099479E1,4.801416282E-1,-1.399968731E0,3.305191272E-1,1.516473318E0
1.249098279E1,2.990280703E-2,-5.612663367E-1,2.448083013E-1,6.130621363E-1
1.250097079E1,2.077572732E-1,-4.711198130E-1,1.700534034E-1,5.422500556E-1
1.251095879E1,3.315388817E-1,-8.809415102E-1,2.400340497E-1,9.713868022E-1
1.252094529E1,3.246941310E-1,-1.289857181E0,1.998163158E-1,1.345022077E0
1.253093329E1,2.770592040E-1,-1.689940048E0,1.465054965E-1,1.718756245E0
1.254092129E1,1.818497224E-1,-1.872712900E0,1.738377213E-3,1.881522243E0
1.255090929E1,3.560438316E-1,-1.878982869E0,-7.323169827E-2,1.913819928E0
1.256089729E1,8.566616781E-1,-1.840433346E0,-1.606797320E-1,2.036389479E0
1.257088529E1,1.148737263E0,-1.825622349E0,-1.610130233E-1,2.162965430E0
1.258087329E1,1.138335797E0,-1.440298731E0,-1.243223298E-1,1.840033930E0
1.259086129E1,5.576296610E-1,-1.080452309E0,-1.782114387E-1,1.228856113E0
1.260084929E1,-1.807462066E-2,-8.223562101E-1,-2.647835594E-1,8.641219598E-1
1.261083729E1,-3.116595179E-1,-3.553262320E-1,-2.620991027E-1,5.404482639E-1
1.262082529E1,-5.224051568E-1,3.397939807E-1,-3.073629838E-1,6.948662468E-1
1.263081229E1,-4.809568763E-1,9.048879048E-1,-1.357407725E-1,1.033715239E0
1.264080029E1,-8.739295292E-1,7.015875256E-1,-1.135739779E-1,1.126444373E0
1.265078829E1,-4.895432201E-1,1.670181430E0,-9.658138454E-2,1.743125508E0
1.266077629E1,-4.424769348E-1,2.670681543E0,1.948865283E-1,2.714094048E0
1.267076429E1,-9.456821743E-1,1.337585079E0,-4.776584619E-1,1.706342939E0
1.268075229E1,-6.818987811E-1,5.990495825E-1,-3.313096708E-1,9.662362278E-1
1.269074029E1,-6.244647977E-1,3.426713955E-1,1.344356740E-1,7.248813139E-1
1.270072829E1,-5.058999288E-1,2.924660325E-1,1.389140564E-1,6.006398532E-1
1.271071629E1,-4.512500972E-1,3.652510035E-1,1.048364836E-1,5.899369746E-1
1.272070429E1,-3.988684005E-1,5.509401539E-1,1.774828756E-1,7.029446815E-1
1.273069229E1,-3.222166657E-1,6.650216702E-1,2.246184504E-1,7.723540961E-1
1.274068029E1,-2.689596409E-1,3.980190924E-1,1.536028469E-1,5.043335413E-1
1.275066729E1,-3.084140208E-1,3.886267099E-1,1.660065454E-1,5.231711966E-1
1.276065529E1,-4.607746267E-1,5.761907700E-1,1.659410566E-1,7.562046643E-1
1.277064329E1,-3.437630707E-1,4.940391442E-1,1.351379246E-1,6.168549128E-1
1.278063129E1,-4.254434109E-3,3.160393748E-1,1.874517936E-1,3.674740284E-1
1.279061929E1,1.490987366E-1,1.889995515E-2,2.121469241E-1,2.599883824E-1
1.280060729E1,6.387322962E-2,3.503137064E-1,1.805175805E-1,3.992318615E-1
1.281059529E1,2.179891697E-1,7.310153925E-1,6.163550019E-3,7.628504254E-1
1.282058329E1,-1.173229203E-1,2.921397579E-1,-1.018608356E-1,3.308865902E-1
1.283057129E1,-2.080497801E-2,-2.018523163E-1,1.334451556E-2,2.033599783E-1
1.284055929E1,1.038243306E-1,-4.782227182E-1,4.952474713E-2,4.918629488E-1
1.285054729E1,-3.437978616E-1,-7.073251060E-1,7.904500008E-2,7.904137443E-1
1.286053429E1,-5.353584936E-1,-7.326605067E-1,3.062830031E-2,9.079307394E-1
1.287052229E1,-5.768026811E-1,-4.071176523E-1,1.442215741E-2,7.061544550E-1
1.288051029E1,-5.882798883E-1,3.840831310E-2,5.753952563E-2,5.923337088E-1
1.289049829E1,-3.141211957E-1,-7.967708409E-2,-1.424334955E-1,3.539885082E-1
1.290048629E1,-1.417511255E-2,-1.146837795E-1,-1.616176254E-1,1.986795408E-1
1.291047429E1,-7.361644506E-4,-1.434164125E-1,-1.191615772E-1,1.864625721E-1
1.292046229E1,-4.782116085E-2,-1.104960036E-1,-1.303239119E-1,1.774275972E-1
1.293045029E1,1.029066101E-1,7.253032476E-2,5.899021983E-2,1.390333213E-1
1.294043829E1,3.561544901E-1,4.139714661E-1,1.838575101E-1,5.762134844E-1
1.295042629E1,3.067174512E-1,4.630898318E-1,9.948569655E-2,5.642917605E-1
1.296041429E1,2.271058559E-1,8.894199729E-1,5.498780072E-2,9.196024229E-1
1.297040129E1,-1.127085900E-1,8.957832053E-1,-9.374606967E-2,9.076998969E-1
1.298038929E1,-2.767513481E-1,1.085821222E0,-1.052159679E-1,1.125464098E0
1.299037729E1,-4.686148658E-1,1.016932251E0,-1.158263254E-1,1.125685051E0
1.300036529E1,-2.826488498E-1,8.898310322E-1,-6.929710686E-2,9.362113688E-1
1.301035329E1,-7.081826001E-2,8.768814960E-1,-4.347697198E-2,8.808102129E-1
1.302034129E1,-3.712660342E-2,1.172414685E0,6.209158301E-2,1.174644603E0
1.303032929E1,-2.197570753E-1,1.405994286E0,1.358056766E-1,1.429530093E0
1.304031729E1,-3.067080957E-1,1.554482281E0,2.805166626E-1,1.609091239E0
1.305030529E1,-7.997412264E-2,9.459610865E-1,2.042748177E-1,9.710645903E-1
1.306029329E1,5.497794816E-1,6.212461978E-2,1.824734741E-1,5.825920661E-1
1.307028129E1,1.107348039E0,-7.597132346E-1,1.988065016E-1,1.357537441E0
1.308026829E1,5.018688583E-1,-3.050086024E-1,9.486931980E-2,5.948972906E-1
1.309025629E1,2.290947863E-1,-1.027082725E0,-9.992306828E-3,1.052370273E0
1.310024429E1,-3.417592299E-1,-1.759846435E0,-2.665453255E-2,1.792922004E0
1.311023229E1,-1.044387560E0,-5.027868712E-1,-1.286469305E-1,1.166228985E0
1.312022029E1,-5.454668677E-1,-6.192359251E-1,-2.603092700E-1,8.653023464E-1
1.313020829E1,-4.711189359E-2,-3.892789668E-1,-2.775392604E-1,4.804015878E-1
1.314019629E1,4.612780720E-2,-4.749219650E-1,-2.524430108E-1,5.398204527E-1
1.315018429E1,-1.199575295E-1,-9.213498634E-1,1.158257407E-1,9.363177783E-1
1.316017229E1,5.527187307E-1,-1.003752042E0,-9.451263964E-2,1.149760321E0
1.317016029E1,5.592715591E-3,-8.130848649E-1,3.144036162E-1,8.717728545E-1
1.318014829E1,-5.407431945E-2,-7.312285236E-1,5.728306675E-1,9.304591121E-1
1.319013529E1,1.111276491E-1,-8.637819788E-1,5.255401415E-1,1.017182924E0
1.320012329E1,2.178856739E-1,-8.196583048E-1,3.355605966E-1,9.120936451E-1
1.321011129E1,2.744932996E-1,-9.011579660E-1,2.032907313E-1,9.637216261E-1
1.322009929E1,-6.917709276E-2,-9.247763318E-1,-2.237027764E-2,9.276298633E-1
1.323008729E1,-3.461640836E-1,-8.809686998E-1,-2.414555079E-1,9.768501344E-1
1.324007529E1,-4.136799824E-1,-6.321407300E-1,-3.584237945E-1,8.361821852E-1
1.325006329E1,-3.677593128E-1,-6.571627200E-1,-3.797421581E-1,8.433942490E-1
1.326005129E1,-1.341051601E-1,-3.057763419E-1,-2.964754683E-1,4.465210728E-1
1.327003929E1,-1.757366046E-1,2.608486757E-1,-9.791981220E-2,3.294141397E-1
1.328002729E1,-3.011077787E-1,5.073167092E-1,1.292234659E-2,5.900873875E-1
1.329001529E1,-7.516040236E-2,4.462738243E-1,-3.341449857E-2,4.537906357E-1
1.330000329E1,-3.458554968E-2,2.580121914E-1,-1.232914656E-1,2.880403386E-1
1.330999129E1,3.091215339E-1,3.944593075E-1,-2.366157675E-1,5.542032925E-1
1.331997829E1,6.450063586E-3,5.784051105E-1,-3.472363168E-1,6.746607554E-1
1.332996629E1,1.084006539E-1,5.583593935E-1,-3.823377371E-1,6.853452117E-1
1.333995429E1,2.987570518E-1,5.548434627E-1,-3.487337887E-1,7.202237843E-1
1.334994229E1,-4.713089705E-1,-7.936718166E-3,-2.492714810E-1,5.332273515E-1
1.335993029E1,-1.222136191E0,-6.956064087E-1,-9.526517630E-2,1.409454008E0
1.336991829E1,-6.682046020E-1,-1.086255670E0,-4.338575542E-2,1.276060773E0
1.337990629E1,1.691628724E-1,-1.097854207E0,-6.431761801E-2,1.112670973E0
1.338989429E1,5.974126545E-1,-7.842475668E-1,-5.258167148E-2,9.872745099E-1
1.339988229E1,2.555595767E-1,-5.127818093E-1,2.522371888E-2,5.734911657E-1
1.340987029E1,-1.078217795E-1,-2.985325187E-2,2.138402778E-1,2.413388017E-1
1.341985829E1,-2.237653416E-1,5.523142496E-1,2.525663871E-1,6.472339131E-1
1.342984529E1,-1.383062384E-1,5.944285280E-1,1.223997653E-1,6.224593103E-1
1.343983329E1,5.290736139E-2,7.084889942E-1,-4.326004028E-2,7.117775460E-1
1.344982129E1,-1.737292555E-1,6.177533635E-1,-2.130152357E-1,6.761483292E-1
1.345980929E1,-6.336332318E-1,5.923410720E-1,-2.175813264E-1,8.942598345E-1
1.346979729E1,-6.834249043E-1,1.045367846E0,-8.345730901E-2,1.251730264E0
1.347978529E1,-1.001026655E0,1.103220197E0,2.347984529E-1,1.508071444E0
1.348977329E1,-2.697051609E-1,9.009465891E-1,4.597034168E-1,1.046791699E0
1.349976129E1,4.597034168E-1,6.110422218E-1,5.784790778E-1,9.588210843E-1
1.350974929E1,7.923035681E-1,5.646279010E-1,6.594203299E-1,1.175323267E0
1.351973725E1,7.702738908E-1,2.195027214E-1,6.619100744E-1,1.039051615E0
1.352972525E1,7.134848553E-1,-7.640293568E-2,5.386753267E-1,8.972564599E-1
1.353971325E1,5.349474344E-1,-1.348677832E-1,1.260449195E-1,5.659022868E-1
1.354970025E1,-4.405698654E-1,-1.606627750E-1,-1.229137355E-1,4.847908002E-1
1.355968825E1,4.083677870E-1,1.277815425E-1,-3.719916737E-1,5.669834013E-1
1.356967625E1,7.745631158E-1,3.507224268E-1,-2.556619030E-1,8.878723161E-1
1.357966425E1,7.973976624E-1,-6.942691505E-3,-2.743355709E-1,8.432978350E-1
1.358965225E1,5.135656285E-1,-4.466448301E-1,-2.563653231E-1,7.272994142E-1
1.359964025E1,1.362354469E-1,-6.059586525E-1,-2.340710592E-1,6.637282925E-1
1.360962825E1,-9.206294864E-2,-5.623992348E-1,-1.709164524E-1,5.949629564E-1
1.361961625E1,-1.120545790E-1,-3.604866922E-1,-6.822355807E-2,3.836161334E-1
1.362960425E1,-2.428629327E-1,1.227503058E-1,6.707925797E-3,2.722040373E-1
1.363959225E1,9.186706692E-2,5.350877675E-1,9.268596947E-2,5.507714280E-1
1.364958025E1,6.870194802E-1,4.631108817E-1,1.867664999E-1,8.493227775E-1
1.365956825E1,1.007265634E0,2.824541375E-1,2.440779841E-1,1.074215276E0
1.366955525E1,1.075383358E0,1.507926750E-1,2.384324974E-1,1.111772392E0
1.367954325E1,1.035610889E0,1.017386287E-1,2.127164429E-1,1.062115317E0
1.368953125E1,1.145415460E0,4.652100322E-1,4.130005360E-2,1.236973178E0
1.369951925E1,9.449167737E-1,4.494169950E-1,-3.947221398E-2,1.047091878E0
1.370950725E1,9.411040968E-1,3.966321328E-1,1.785856605E-2,1.021426893E0
1.371949525E1,9.790200743E-1,4.696735042E-1,-5.187825143E-2,1.087090088E0
1.372948325E1,5.388185835E-1,1.735453606E-1,-4.983640373E-2,5.682667729E-1
1.373947125E1,-4.291976157E-1,-4.643042985E-1,-2.863685560E-1,6.941152820E-1
1.374945925E1,-6.716459808E-1,-3.721428242E-1,-1.560563385E-2,7.680118104E-1
1.375944725E1,-7.225556409E-1,-4.279805177E-1,9.405714154E-2,8.450448057E-1
1.376943525E1,-1.866934097E-1,-2.937082735E-1,2.169492424E-2,3.486970732E-1
1.377942325E1,1.176146963E-1,-8.853736997E-2,-7.915551245E-2,1.671456784E-1
1.378941025E1,-6.830658853E-1,5.454735920E-1,1.019912285E-1,8.800696870E-1
1.379939825E1,-9.897020602E-1,3.610860318E-1,6.618346453E-2,1.055591560E0
1.380938625E1,-1.632731475E0,1.292626423E-1,1.684805024E-1,1.646483095E0
1.381937425E1,-1.093698884E0,-1.870074052E-1,2.250622541E-1,1.132166965E0
1.382936225E1,2.804630144E-1,-5.383750722E-1,-2.244570673E-2,6.074627812E-1
1.383935025E1,-6.961168706E-2,-4.049813721E-1,8.571082592E-2,4.197642724E-1
1.384933825E1,-1.240228061E-1,-6.698856765E-1,2.976566058E-1,7.434567446E-1
1.385932625E1,-4.159082101E-1,-1.170561118E0,3.244918174E-1,1.283934543E0
1.386931425E1,-1.228203262E-1,-1.651226511E0,2.325694942E-1,1.672041385E0
1.387930225E1,-3.972595391E-1,-2.058309372E0,1.644459236E-1,2.102735141E0
1.388929025E1,-7.371333343E-1,-2.009743276E0,3.023419797E-2,2.140875450E0
1.389927825E1,-7.601982611E-1,-1.940011721E0,-8.529041111E-2,2.085382777E0
1.390926525E1,-7.736535814E-1,-1.779691300E0,-1.457085210E-1,1.946040072E0
1.391925325E1,-9.442697793E-1,-1.734038579E0,-1.624894452E-1,1.981145636E0
1.392924125E1,-1.153107764E0,-1.410161597E0,-2.538732398E-1,1.839202236E0
1.393922925E1,-1.282942849E0,-1.017660814E0,-3.432175255E-1,1.673133036E0
1.394921725E1,-9.669145837E-1,-9.566807869E-1,-4.150909156E-1,1.422133049E0
1.395920525E1,-5.399430031E-1,-6.044515327E-1,-4.432142687E-1,9.237634924E-1
1.396919325E1,1.346578681E-1,6.952900743E-1,-3.988502741E-1,8.127992188E-1
1.397918125E1,3.779458934E-1,2.060580431E0,-3.067911261E-1,2.117299130E0
1.398916925E1,1.972330159E-1,3.207158024E0,-2.207201117E-1,3.220788851E0
1.399915725E1,-4.531472263E-1,3.619055775E0,-1.289369524E-1,3.649593382E0
1.400914525E1,-1.028902671E0,3.908743211E0,2.968748331E-2,4.042003902E0
1.401913325E1,2.963895142E-2,4.214116972E0,1.467382157E-1,4.216775122E0
1.402912125E1,5.208696780E-1,3.345659267E0,2.078398651E-1,3.392335267E0
1.403910825E1,2.348373368E-1,2.878625196E0,2.711809981E-1,2.900891368E0
1.404909625E1,-3.851598957E-1,2.711766127E0,3.318967313E-1,2.759017780E0
1.405908425E1,-8.093367997E-1,2.431376056E0,3.298671627E-1,2.583684951E0
1.406907225E1,-5.736299819E-1,1.774868225E0,3.589161301E-1,1.899481339E0
1.407906025E1,4.547493634E-1,1.089400011E0,3.503370953E-1,1.231391671E0
1.408904825E1,1.662996079E0,6.891779798E-1,3.208916867E-1,1.828522278E0
1.409903625E1,1.944386023E0,-2.028083360E-1,3.468287659E-1,1.985461765E0
1.410902425E1,1.497724528E0,-1.228508487E0,3.849461800E-1,1.974992513E0
1.411901225E1,1.431394299E0,-1.351895555E0,3.913102895E-1,2.007395071E0
1.412900025E1,2.415151495E-1,-2.010703389E0,1.732705414E-1,2.032555132E0
1.413898825E1,-4.024822721E-1,-1.992598363E0,2.315573412E-1,2.045986074E0
1.414897525E1,7.835268974E-4,-3.262002568E0,-1.512914425E-1,3.265509221E0
1.415896325E1,-5.814421543E-1,-5.734800008E-1,4.312847793E-2,8.178107090E-1
1.416895125E1,9.105021089E-2,-5.277167675E-1,1.039564776E-1,5.455108403E-1
1.417893925E1,2.977820286E-1,-1.021988923E0,-2.212171251E-1,1.087231582E0
1.418892725E1,-1.422189027E-2,-1.224279488E0,2.075703084E-2,1.224538028E0
1.419891525E1,-9.415479004E-3,-1.476186894E0,3.905238390E-2,1.476733384E0
1.420890325E1,-1.927705671E-1,-1.627361100E0,5.276293516E-2,1.639587926E0
1.421889125E1,-3.609983236E-2,-1.648768049E0,-6.234535217E-2,1.650341243E0
1.422887925E1,9.417930450E-1,-1.461660072E0,-1.663965547E-1,1.746743289E0
1.423886725E1,5.791436139E-1,-1.462094520E0,-1.064438832E-1,1.576216359E0
1.424885525E1,-3.467372569E-1,-1.096699382E0,-9.720469773E-2,1.154307158E0
1.425884325E1,-8.550672886E-1,-1.007652720E0,-1.423387706E-1,1.329196899E0
1.426883025E1,-7.048789233E-1,-1.203131571E0,-1.042067385E-1,1.398298580E0
1.427881825E1,-1.887368654E-1,-1.303006108E0,-1.823559451E-1,1.329172754E0
1.428880625E1,-8.380799577E-2,-1.511499984E0,-1.769817692E-1,1.524132057E0
1.429879425E1,-1.129699606E-1,-1.293783879E0,-1.014100152E-1,1.302659944E0
1.430878225E1,-2.050217995E-1,-1.199811230E0,4.858919263E-2,1.218171513E0
1.431877025E1,-5.891283193E-1,-1.227155441E0,-3.661234081E-2,1.361735333E0
1.432875825E1,-1.089190096E0,-1.483009133E0,-1.728764391E-1,1.848117263E0
1.433874625E1,-1.029842611E0,-1.078720948E0,-3.127155250E-1,1.523812878E0
1.434873425E1,-7.233777595E-1,-8.977627802E-1,-3.917494154E-1,1.217670315E0
1.435872225E1,-3.379825133E-1,-5.130335319E-1,-3.266447622E-1,6.957962236E-1
1.436871025E1,5.420421535E-1,3.799339467E-1,-7.322526634E-2,6.659740533E-1
1.437869825E1,7.363705650E-1,6.194031554E-1,3.546687126E-2,9.628913630E-1
1.438868625E1,1.536531329E-2,6.835514966E-1,6.348438978E-2,6.866651360E-1
1.439867425E1,-1.061133986E0,8.698519734E-1,1.372259653E-1,1.378941172E0
1.440866125E1,-8.339866143E-1,1.406810850E0,1.970453203E-1,1.647263579E0
1.441864925E1,-4.027070975E-1,1.989973255E0,2.349001944E-2,2.030447818E0
1.442863725E1,3.326513144E-1,2.149600196E0,3.530782700E-2,2.175473406E0
1.443862525E1,4.215976971E-1,1.789634491E0,6.915969729E-2,1.839923719E0
1.444861325E1,-4.758101571E-1,1.025063682E0,-1.167788368E-1,1.136128581E0
1.445860125E1,-4.873449594E-2,1.391269828E0,-5.819149017E-3,1.392135283E0
1.446858925E1,-5.899212018E-1,8.828974038E-1,-1.358834445E-2,1.061931963E0
1.447857725E1,-8.417423612E-1,1.141078287E0,1.942211151E-2,1.418085709E0
1.448856525E1,-6.876480559E-1,1.328499383E0,5.061291397E-2,1.496773906E0
1.449855325E1,-8.342400911E-1,7.137973890E-1,3.494763851E-2,1.098491957E0
1.450854125E1,-3.431955984E-1,4.831691703E-1,1.300748205E-1,6.067578799E-1
1.451852925E1,-5.609672517E-2,2.970976120E-1,1.916226125E-1,3.579567841E-1
1.452851637E1,-2.698121649E-1,1.623821488E-1,2.424916345E-1,3.974528392E-1
1.453850438E1,-5.737650526E-1,5.365522027E-2,2.333606225E-1,6.217253400E-1
1.454849238E1,-7.260879439E-1,-2.802754650E-1,8.570556343E-2,7.830092478E-1
1.455848037E1,-7.673879975E-1,-3.587757969E-1,5.212441921E-2,8.487174832E-1
1.456846838E1,-1.520349160E-1,-1.919573656E-1,1.084073782E-1,2.677954546E-1
1.457845638E1,-4.164416224E-2,-6.132676721E-2,1.852204961E-1,1.995039869E-1
1.458844437E1,-1.002168909E-1,1.242916319E-1,3.753719491E-1,4.079165786E-1
1.459843238E1,1.869243747E-1,5.840877271E-1,1.830751526E-1,6.400122704E-1
1.460842038E1,-5.235304534E-2,8.682051051E-1,3.363669276E-2,8.704322908E-1
1.461840837E1,-4.335412198E-1,1.078532668E0,-4.898154080E-2,1.163438824E0
1.462839638E1,-5.587713298E-1,1.307299133E0,-2.021195340E-1,1.436004432E0
1.463838438E1,-3.650554141E-1,1.668509418E0,-1.406115031E-1,1.713756321E0
1.464837237E1,9.957925200E-2,1.808370724E0,-6.520990312E-2,1.812283927E0
1.465835938E1,4.798801115E-1,1.468537274E0,-2.157242507E-1,1.559943460E0
1.466834738E1,2.900221887E-1,7.558499792E-1,-3.754766142E-1,8.924151214E-1
1.467833538E1,1.876874363E-1,2.065862221E-1,-3.052609098E-1,4.136286547E-1
1.468832338E1,4.834153381E-1,-1.712567604E-1,-7.779486537E-2,5.187208384E-1
1.469831137E1,9.728188097E-1,-4.925595063E-1,1.195112407E-1,1.096938576E0
1.470829938E1,9.938047591E-1,-5.609768996E-1,2.290734440E-1,1.163966333E0
1.471828738E1,6.465199104E-1,-3.779198733E-1,2.731281209E-1,7.971263360E-1
1.472827537E1,6.774680534E-1,-6.640457699E-1,3.128827554E-1,9.989070860E-1
1.473826338E1,6.590238887E-1,-7.557143238E-1,3.359365726E-1,1.057482863E0
1.474825138E1,-2.854943973E-1,-9.478050059E-1,5.527179998E-1,1.133727731E0
1.475823937E1,3.396893156E-1,-9.287313884E-1,1.946555632E-1,1.007879760E0
1.476822738E1,1.031610224E0,-1.177336872E-1,2.539439911E-1,1.068909924E0
1.477821438E1,3.162419808E-1,-3.248324177E-1,-9.523944855E-2,4.632446897E-1
1.478820238E1,-1.248582271E-1,-6.485021165E-1,-1.155117452E-1,6.704383158E-1
1.479819038E1,-4.955678988E-1,-1.933203515E-1,3.146152854E-2,5.328697105E-1
1.480817838E1,-1.262495720E0,-1.964775556E-1,1.560352886E-1,1.287185257E0
1.481816638E1,-1.013661026E0,2.007232189E-2,2.170135617E-1,1.036825183E0
1.482815438E1,-5.690510273E-3,-1.224231541E-2,1.748036814E-1,1.753242231E-1
1.483814237E1,1.524794213E0,8.119619071E-2,-1.318061811E-1,1.532632729E0
1.484813038E1,6.233976808E-1,8.241884351E-2,-3.417095286E-1,7.156695719E-1
1.485811838E1,-1.286673665E0,2.074267593E-1,-4.002886891E-1,1.363373028E0
1.486810637E1,-1.221083108E0,9.026469594E-1,-4.773421276E-1,1.591750922E0
1.487809438E1,-7.901684573E-1,2.896044052E-1,-3.555814630E-1,9.136055381E-1
1.488808238E1,-5.940393957E-1,-3.101994681E-1,-1.227921134E-1,6.813108078E-1
1.489807037E1,-4.434724233E-1,-6.803323120E-1,4.181343913E-3,8.121190360E-1
1.490805738E1,-2.680389968E-1,-1.122614534E0,1.154240370E-1,1.159927155E0
1.491804538E1,-2.758032221E-1,-1.139411539E0,9.854020178E-2,1.176450697E0
1.492803338E1,-1.727042386E-1,-1.041981723E0,3.784317970E-2,1.056875003E0
1.493802138E1,-1.608259124E-1,-9.462706965E-1,3.277364373E-2,9.603995611E-1
1.494800938E1,-4.169035524E-2,-9.888293633E-1,3.072711825E-2,9.901847056E-1
1.495799738E1,2.754053190E-1,-9.989219499E-1,2.571020722E-3,1.036194847E0
1.496798538E1,4.998533231E-1,-1.114485735E0,-6.706580937E-2,1.223286402E0
1.497797338E1,7.042047393E-1,-1.146243133E0,-1.398180360E-1,1.352526051E0
1.498796138E1,6.344687989E-1,-1.060603935E0,-2.532306308E-1,1.261569307E0
1.499794938E1,4.941081414E-1,-1.082830079E0,-1.557364959E-1,1.200382311E0
1.500793737E1,2.481298122E-1,-7.042143872E-1,-1.686336994E-2,7.468404650E-1
1.501792538E1,-8.630548775E-2,-3.626826140E-1,1.225365901E-1,3.924315630E-1
1.502791338E1,1.428708673E-2,-2.827467906E-1,1.054083413E-1,3.020940034E-1
1.503790038E1,2.117422968E-1,-4.670951745E-1,1.511534482E-1,5.346588325E-1
1.504788837E1,3.721287909E-1,-6.020100278E-1,2.184408671E-1,7.406836862E-1
1.505787638E1,3.823669732E-1,-7.945839822E-1,2.338757622E-1,9.122861827E-1
1.506786438E1,4.473751473E-1,-7.021009111E-1,1.484227985E-1,8.456474082E-1
1.507785238E1,4.909184852E-1,-4.916102108E-1,1.060357475E-1,7.027980779E-1
1.508784038E1,5.097362870E-1,-4.183735424E-1,7.930637062E-2,6.641965099E-1
1.509782838E1,6.371114480E-1,-2.669022980E-1,1.982931161E-1,7.186570767E-1
1.510781638E1,6.638188979E-1,-6.168549389E-2,1.979393595E-1,6.954427506E-1
1.511780438E1,3.026662078E-1,3.488366997E-1,2.189723790E-2,4.623563187E-1
1.512779238E1,4.295218438E-1,5.402988061E-1,5.047491968E-2,6.920690224E-1
1.513778038E1,8.874670029E-1,8.498711604E-1,3.462136388E-2,1.229258846E0
1.514776837E1,1.666561711E-1,1.098505295E0,-7.578283846E-2,1.113656680E0
1.515775638E1,-6.814883065E-1,8.387740222E-1,-1.000218862E-1,1.085344438E0
1.516774338E1,-3.635050249E-1,1.095264768E0,-7.842344105E-2,1.156672404E0
1.517773138E1,5.364264876E-2,1.103352929E0,-1.709415954E-1,1.117804209E0
1.518771937E1,2.815080580E-1,4.788033468E-1,-1.025882292E-1,5.648218979E-1
1.519770738E1,4.525171888E-1,-7.511917949E-3,1.916717291E-3,4.525835932E-1
1.520769538E1,5.986724371E-1,-3.236854863E-1,-2.705506682E-2,6.811115603E-1
1.521768337E1,6.120596373E-1,-5.135539341E-1,-5.035563648E-2,8.005562647E-1
1.522767138E1,5.193251359E-1,-5.007073089E-1,-1.846784592E-2,7.216283444E-1
1.523765938E1,2.755503300E-1,-3.506560609E-1,-3.669127822E-2,4.474750354E-1
1.524764738E1,6.564493597E-2,-2.487227198E-1,1.032969117E-2,2.574469878E-1
1.525763538E1,3.977524593E-1,-3.574063790E-1,-5.557953894E-2,5.376201483E-1
1.526762338E1,4.125868455E-1,-3.637003219E-1,-9.489797115E-2,5.581321117E-1
1.527761138E1,1.474515760E-1,-1.926143003E-1,1.499226093E-3,2.425788194E-1
1.528759838E1,1.099685848E-2,1.261232722E-1,6.519470036E-2,1.424021055E-1
1.529758637E1,-5.410311699E-2,4.121409953E-1,-9.663108587E-3,4.157892771E-1
1.530757438E1,-2.323282966E-1,3.527101877E-1,-1.889890265E-1,4.627069981E-1
1.531756238E1,-4.422027004E-1,2.038380307E-1,-1.763105088E-1,5.178596012E-1
1.532755037E1,-3.534875751E-1,2.707252076E-1,-1.876862669E-1,4.831891333E-1
1.533753838E1,-1.490396798E-1,-8.858531713E-2,-2.993002582E-1,3.458913545E-1
1.534752638E1,-2.171123797E-1,-2.169609368E-1,-2.958188260E-1,4.262846599E-1
1.535751437E1,-1.978145215E-1,-2.598765761E-1,-1.826114684E-1,3.741836021E-1
1.536750238E1,1.202655315E-2,-2.836952090E-2,-4.561939180E-2,5.505085472E-2
1.537749038E1,-3.000674129E-1,3.509463751E-1,-5.256880760E-2,4.647228099E-1
1.538747838E1,-4.398448107E-1,1.072905600E-1,4.788518786E-2,4.552666394E-1
1.539746638E1,-4.069887212E-1,-4.922186136E-3,1.353542715E-1,4.289345240E-1
1.540745438E1,-3.829794690E-1,1.658515942E-1,2.529534727E-1,4.880220122E-1
1.541744138E1,-3.927408108E-1,3.944145763E-1,2.636158705E-1,6.158746054E-1
1.542742938E1,-3.407464921E-1,4.264865541E-1,3.199415141E-1,6.327412783E-1
1.543741737E1,-1.674733195E-1,2.917804465E-1,3.110601783E-1,4.581938195E-1
1.544740538E1,-8.080852032E-3,1.791876313E-1,1.662152910E-1,2.445424919E-1
1.545739338E1,-4.997995287E-2,2.070142382E-1,-4.467740536E-2,2.175981642E-1
1.546738137E1,-1.665611538E-1,3.516275758E-1,-1.792715389E-1,4.283956753E-1
1.547736938E1,-3.190337339E-1,5.317630407E-1,-9.473600328E-2,6.273191892E-1
1.548735738E1,-3.166197109E-1,7.090880415E-1,1.672677898E-1,7.943754814E-1
1.549734537E1,-3.376538998E-1,7.935314834E-1,1.213092595E-1,8.708721535E-1
1.550733338E1,-8.720771313E-2,8.292126551E-1,1.462271690E-2,8.339140462E-1
1.551732138E1,5.303775430E-2,4.060873729E-1,4.396404505E-2,4.118892995E-1
1.552731000E1,2.676410937E-1,-1.670634297E-1,-5.250326031E-1,6.125366756E-1
1.553729800E1,5.912295163E-2,-4.132081121E-2,1.639851630E-2,7.397191484E-2
1.554728500E1,-8.271512192E-1,-1.781330860E-1,-1.006416911E-1,8.520793894E-1
1.555727300E1,2.663327792E-1,4.716443083E-1,-1.883756536E-1,5.734691707E-1
1.556726100E1,4.915470609E-1,6.246285197E-1,1.043395287E0,1.311660408E0
1.557724900E1,7.427618641E-1,7.896810919E-2,8.611615491E-1,1.139969457E0
1.558723700E1,8.251058632E-1,-5.711016458E-1,4.587748790E-1,1.103372632E0
1.559722500E1,-1.999747753E-3,-7.765201789E-1,3.256472272E-1,8.420413908E-1
1.560721300E1,-4.914590603E-1,-1.038733595E0,-8.829061747E-2,1.152516691E0
1.561720100E1,-6.303263390E-1,-9.071949238E-1,-4.971571720E-1,1.211395549E0
1.562718900E1,-5.363355634E-1,-5.698883486E-1,-6.553407276E-1,1.020735047E0
1.563717700E1,-3.577586737E-1,-6.975965086E-1,-7.370988357E-1,1.076079389E0
1.564716500E1,-2.588270009E-1,-1.095550112E0,-4.646355432E-1,1.217829074E0
1.565715300E1,-9.463513881E-2,-1.244453552E0,-3.081634676E-1,1.285529142E0
1.566714100E1,-4.070641503E-1,-9.290336895E-1,-2.341096509E-1,1.040966929E0
1.567712900E1,-4.527969781E-1,-4.978804725E-1,-4.686970192E-1,8.201139946E-1
1.568711600E1,-5.430455357E-2,-2.209104386E-1,2.472220320E-1,3.359600266E-1
1.569710400E1,3.509788272E-1,3.336368626E-1,-2.011582518E-1,5.243704182E-1
1.570709200E1,2.471398786E-1,3.876078326E-1,3.474579263E-1,5.762334266E-1
1.571708000E1,-1.806760401E-1,1.285789566E0,9.348119080E-2,1.301782383E0
1.572706800E1,1.010674853E0,-3.483572280E-1,-8.039009356E-1,1.337562384E0
1.573705600E1,-6.647193691E-1,-1.426025970E0,-7.050280273E-1,1.724084228E0
1.574704400E1,-1.943906844E0,-1.395635651E0,6.443514705E-2,2.393893184E0
1.575703200E1,-1.078293809E0,1.206602186E-1,5.039130449E-2,1.086193220E0
1.576702000E1,-7.757769978E-1,1.041772393E0,-1.862244630E-1,1.312173471E0
1.577700800E1,-8.166130748E-1,7.384653300E-2,-2.365263051E-1,8.533785312E-1
1.578699600E1,-5.364133313E-1,2.394057664E-1,-2.631872696E-1,6.436784305E-1
1.579698400E1,4.914730936E-2,9.824333864E-1,4.834945679E-2,9.848494742E-1
1.580697200E1,6.277295905E-1,1.581508697E0,-5.417211413E-2,1.702395023E0
1.581695900E1,7.827594504E-1,2.629424759E0,-5.456142175E-1,2.797191769E0
1.582694700E1,7.424648255E-2,1.012788329E0,1.641658419E-1,1.028690023E0
1.583693500E1,-6.832822323E-1,2.262144479E-1,5.480817425E-1,9.046773911E-1
1.584692300E1,-7.617390025E-1,-9.883516458E-1,3.665982020E-1,1.300568924E0
1.585691100E1,-7.145715603E-1,-1.188850916E0,-2.238331693E-1,1.405019681E0
1.586689900E1,-7.023628664E-1,-7.223439717E-1,-5.930070698E-2,1.009262594E0
1.587688700E1,-4.943043154E-1,-2.167899057E-1,1.181044006E-1,5.525244510E-1
1.588687500E1,-3.327957407E-1,9.373086691E-3,5.167570388E-1,6.147183883E-1
1.589686300E1,-8.949602097E-2,5.453113317E-3,6.467108220E-1,6.528967464E-1
1.590685100E1,-1.488499376E-1,-6.104727030E-2,5.204133028E-1,5.447137586E-1
1.591683900E1,1.704229474E-2,6.519774091E-1,1.265618134E-1,6.643665211E-1
1.592682700E1,-3.016496694E-1,1.403503665E0,1.926815432E-1,1.448427160E0
1.593681500E1,1.260481939E0,4.426381133E0,1.133169343E0,4.739803521E0
1.594680200E1,2.881278370E0,5.231557054E0,-5.208535981E-1,5.995184962E0
1.595679000E1,3.097211659E-1,6.679730523E-1,-1.262765862E0,1.461743076E0
1.596677800E1,-3.762091242E0,-3.613072320E0,3.827979130E-1,5.230120108E0
1.597676600E1,-1.932957932E0,-3.641680992E0,4.942107600E-1,4.152398233E0
1.598675400E1,-1.506955235E0,-3.127212845E0,8.281949472E-1,3.568792672E0
1.599674200E1,-1.551744030E0,-2.472592495E0,9.538042492E-1,3.071052869E0
1.600673000E1,6.500995758E-1,-1.151381081E0,8.331989944E-2,1.324858505E0
1.601671800E1,2.067585103E0,4.664090037E-1,8.030507505E-2,2.121059740E0
1.602670600E1,-2.048754145E0,7.400896865E-1,1.660826177E0,2.739246225E0
1.603669400E1,-2.907735267E0,-1.240083928E0,2.186118397E0,3.843415951E0
1.604668200E1,3.156686028E0,-1.618416322E0,2.783531928E-1,3.558288714E0
1.605667000E1,4.669697810E0,9.392394197E-1,2.113797694E-1,4.767906220E0
