"Time (s)","Linear Acceleration x (m/s^2)","Linear Acceleration y (m/s^2)","Linear Acceleration z (m/s^2)","Absolute acceleration (m/s^2)"
1.174654160E-2,3.863471729E-1,1.415616757E-1,-1.716531431E0,1.765158350E0
2.173454175E-2,3.109432340E-2,1.042868453E-1,-1.353331046E0,1.357699349E0
3.172254143E-2,-2.738654548E-1,-8.727554083E-3,-6.881804448E-1,7.407231481E-1
4.171054158E-2,-3.645493376E-1,-4.754780352E-2,1.528690213E-1,3.981531751E-1
5.169854173E-2,-2.747252879E-1,-5.284128785E-3,7.934560543E-1,8.396870941E-1
6.168754166E-2,-3.162966523E-1,1.124469271E-1,1.087784425E0,1.138403636E0
7.167554181E-2,-3.342408800E-1,2.299163201E-1,1.101503162E0,1.173834612E0
8.166354150E-2,-1.670444262E-1,2.395308968E-1,8.856999743E-1,9.326003085E-1
9.165154165E-2,6.413226128E-3,1.340719771E-1,5.316697776E-1,5.483513262E-1
1.016395418E-1,1.120703664E-1,3.679535866E-2,1.820097899E-1,2.168899008E-1
1.116285417E-1,1.442981726E-1,4.776239634E-2,-1.060731697E-1,1.853502804E-1
1.216165419E-1,1.094037437E-1,-8.563247323E-3,-2.637357384E-1,2.856554709E-1
1.316045416E-1,-1.423329234E-2,-9.665622890E-2,-2.390359300E-1,2.582308832E-1
1.415925417E-1,-9.696291536E-2,-8.335907578E-2,-1.376715231E-1,1.878935623E-1
1.515805419E-1,-1.983416480E-1,3.924212605E-2,-7.458298981E-2,2.155040050E-1
1.615685415E-1,-3.301054367E-1,1.385874894E-1,-7.583955646E-2,3.659613776E-1
1.715575415E-1,-2.270242873E-1,1.358524543E-1,-6.024269342E-2,2.713394525E-1
1.815455416E-1,-5.032727748E-2,9.547713786E-2,-2.344733477E-4,1.079294848E-1
1.915335418E-1,5.005976737E-2,2.639842451E-2,2.549152136E-2,6.206991853E-2
2.015215415E-1,6.619720548E-2,-6.322594285E-3,4.729344964E-2,8.160095337E-2
2.115095416E-1,8.424375951E-2,-2.419051588E-2,1.003393900E-1,1.332298212E-1
2.214985415E-1,8.356957555E-2,-1.529923975E-2,1.065619969E-1,1.362842613E-1
2.314865417E-1,5.167769194E-2,-5.759448946E-2,4.817637920E-2,9.115192029E-2
2.414745418E-1,2.803856850E-2,-6.131711930E-2,-3.034354091E-2,7.393700641E-2
2.514625415E-1,-1.815268099E-2,-3.145100355E-2,-9.635334313E-2,1.029691807E-1
2.614505417E-1,-5.090410531E-2,-2.744098306E-2,-1.326212829E-1,1.446811673E-1
2.714395416E-1,-1.481538266E-1,-1.629385114E-2,-1.189890844E-1,1.907182427E-1
2.814275417E-1,-1.043268988E-1,-2.475447983E-2,-3.798643649E-2,1.137534854E-1
2.914155414E-1,-6.864338815E-3,-7.608104646E-2,3.115630388E-2,8.249945485E-2
3.014035416E-1,1.990538388E-2,-1.129123655E-1,7.087877870E-2,1.347932782E-1
3.113915417E-1,-1.719373763E-2,-9.892348677E-2,6.162497520E-2,1.178096703E-1
3.213805417E-1,-4.626258552E-2,-6.313355684E-2,-7.260663092E-2,1.067604593E-1
3.313685418E-1,-5.958078861E-2,-2.290559024E-2,-1.600570035E-1,1.723159331E-1
3.413565415E-1,-3.185475379E-2,-1.006627411E-2,-2.072604060E-1,2.099355404E-1
3.513445416E-1,-1.687594146E-2,-3.205209732E-2,-1.854625708E-1,1.889669270E-1
3.613325418E-1,-8.524831116E-2,-1.002356020E-1,-5.876100898E-2,1.441086626E-1
3.713205415E-1,-1.359182355E-1,-1.185359251E-1,1.095651269E-2,1.806781045E-1
3.813095419E-1,-8.901421040E-2,-5.682791948E-2,7.328958571E-2,1.285468998E-1
3.912975416E-1,-1.404659075E-1,-5.140111864E-2,1.271576446E-1,1.963206885E-1
4.012855417E-1,-2.046522555E-1,-1.295389232E-1,1.810245341E-1,3.023785049E-1
4.112735419E-1,-1.938872391E-1,-9.122679681E-2,2.124199891E-1,3.017231209E-1
4.212615415E-1,-1.534917498E-1,-6.274237812E-2,2.027837777E-1,2.619495825E-1
4.312505415E-1,-1.393982059E-1,-5.110583425E-2,1.804450750E-1,2.336751831E-1
4.412385416E-1,-1.302022898E-1,-1.039994547E-1,1.629238933E-1,2.330508912E-1
4.512265418E-1,-1.054668134E-1,-1.242007077E-1,1.032425326E-1,1.928939736E-1
4.612145415E-1,-1.310056973E-1,-1.670727852E-1,5.122921050E-2,2.184038467E-1
4.712025416E-1,-1.936802477E-1,-1.895839807E-1,-9.367765725E-2,2.867570881E-1
4.811915415E-1,-2.224169737E-1,-1.594439229E-1,-2.511168623E-1,3.714180304E-1
4.911795417E-1,-2.530707094E-1,-1.506274912E-1,-3.489559829E-1,4.566220572E-1
5.011675418E-1,-2.994633955E-1,-1.523971510E-1,-3.652474952E-1,4.962952242E-1
5.111555415E-1,-2.802760497E-1,-1.611346453E-1,-3.195778173E-1,4.545866466E-1
5.211435417E-1,-1.763388678E-1,-1.788020074E-1,-2.109453213E-1,3.279687222E-1
5.311325416E-1,-9.265000910E-2,-2.076229334E-1,-1.259958029E-1,2.599350861E-1
5.411205417E-1,1.359974653E-2,-2.314447823E-1,-9.411327481E-2,2.502178029E-1
5.511085414E-1,-1.954314888E-2,-2.776544505E-1,-9.675387740E-2,2.946781997E-1
5.610965416E-1,-7.154009879E-2,-2.955250034E-1,-1.656878722E-1,3.462737130E-1
5.710845417E-1,-1.194016054E-1,-2.939947870E-1,-2.012325114E-1,3.757448627E-1
5.810725419E-1,-1.528707755E-1,-2.901636913E-1,-2.961415923E-1,4.418871852E-1
5.910615418E-1,-1.765718794E-1,-2.984813556E-1,-3.348220932E-1,4.820524685E-1
6.010495415E-1,-1.929016909E-1,-3.062385643E-1,-3.711303788E-1,5.183925913E-1
6.110375416E-1,-1.489689285E-1,-3.306001112E-1,-3.675413579E-1,5.163088464E-1
6.210255418E-1,-1.189762205E-1,-3.427702135E-1,-3.833101290E-1,5.278005450E-1
6.310134167E-1,-8.996379822E-2,-3.329737884E-1,-3.542833811E-1,4.944509509E-1
6.410024166E-1,-4.340125054E-2,-3.389809254E-1,-3.526566857E-1,4.910788881E-1
6.509904168E-1,-8.925189972E-3,-3.420331720E-1,-3.334824961E-1,4.777833452E-1
6.609784164E-1,-1.511505246E-2,-3.339654762E-1,-2.563846189E-1,4.213009339E-1
6.709664166E-1,7.860704362E-3,-3.177663499E-1,-1.652978629E-1,3.582745139E-1
6.809544167E-1,6.777390718E-2,-2.771920820E-1,-8.634641826E-2,2.981349640E-1
6.909434167E-1,9.342330337E-2,-1.999595726E-1,1.662831187E-2,2.213328828E-1
7.009314168E-1,3.888983130E-2,-8.290547803E-2,1.206660658E-1,1.514794927E-1
7.109194165E-1,-4.274928600E-2,6.638387784E-2,2.575587398E-1,2.693897272E-1
7.209074167E-1,-1.895158607E-1,2.132472239E-1,5.003146684E-1,5.759387184E-1
7.308954168E-1,-3.134563673E-1,3.050479250E-1,8.247866052E-1,9.335856013E-1
7.408844167E-1,-3.442592070E-1,3.459528530E-1,1.053877006E0,1.161401964E0
7.508724169E-1,-3.111911559E-1,2.184540233E-1,1.032697222E0,1.100466105E0
7.608604166E-1,-2.528941235E-1,7.331297457E-2,7.505012387E-1,7.953504506E-1
7.708484167E-1,-1.232824025E-1,-1.840498835E-2,4.878068894E-1,5.034807402E-1
7.808364169E-1,1.061643863E-1,2.808037609E-2,3.371703351E-1,3.546029036E-1
7.908254168E-1,2.147363636E-1,-1.508683965E-2,2.344090283E-1,3.182560465E-1
8.008134165E-1,1.018976730E-1,-1.065190199E-1,3.721226513E-2,1.520335162E-1
8.108014166E-1,-8.207034945E-2,-1.893500921E-1,-1.486297899E-1,2.543222643E-1
8.207894168E-1,-1.555447072E-2,-1.366962075E-1,-1.467534184E-1,2.011575515E-1
8.307774165E-1,1.644880235E-1,3.684199020E-2,9.378056824E-2,1.928948862E-1
8.407654166E-1,2.118887696E-1,1.868819824E-1,3.849368244E-1,4.774914500E-1
8.507544165E-1,1.587954667E-1,1.788287584E-1,6.145996678E-1,6.594910740E-1
8.607424167E-1,3.014561266E-2,1.518932672E-1,7.144578320E-1,7.310474104E-1
8.707304168E-1,-5.580699563E-2,1.811796315E-1,6.355625206E-1,6.632346472E-1
8.807184165E-1,-8.632302940E-2,2.154014844E-1,4.175140017E-1,4.776687205E-1
8.907064167E-1,3.102532625E-2,1.549629092E-1,2.947113633E-2,1.607626262E-1
9.006954166E-1,2.733351123E-1,2.220363200E-2,-2.165872997E-1,3.494497722E-1
9.106834168E-1,5.716296494E-1,5.325790197E-3,-2.998528200E-1,6.455234572E-1
9.206714164E-1,6.188350984E-1,4.044270560E-1,-2.244225687E-1,7.725824306E-1
9.306594166E-1,5.506200188E-1,1.148107664E0,-2.305925506E-1,1.294027255E0
9.406474167E-1,4.442337307E-1,1.400377305E0,-2.798249370E-1,1.495560831E0
9.506364167E-1,3.196652332E-1,1.193110905E0,-3.189486569E-1,1.275706761E0
9.606244168E-1,2.523903859E-1,9.120103982E-1,-4.817614532E-1,1.061865326E0
9.706124165E-1,9.764440835E-2,5.600331590E-1,-6.417067748E-1,8.572975881E-1
9.806004167E-1,-1.797314224E-1,3.139134733E-1,-4.727047008E-1,5.952266687E-1
9.905884168E-1,-6.029721871E-1,6.347494653E-1,-1.151924872E-1,8.830354756E-1
1.000577417E0,-7.698055288E-1,4.700579587E-1,1.214542120E0,1.512834293E0
1.010565417E0,-4.309286839E-1,-5.418176204E-2,1.586101100E0,1.644491378E0
1.020553417E0,-2.822190794E-1,-1.313667628E-1,5.562111264E-1,6.373975622E-1
1.030541417E0,-1.045859304E0,-1.103319892E-1,4.406134272E-1,1.140234635E0
1.040529417E0,-9.428565073E-1,-2.493586046E-1,5.550282347E-1,1.122147249E0
1.050517417E0,-3.530984429E-1,-1.495836170E-1,-3.144954175E-1,4.959446909E-1
1.060506416E0,-1.863384837E-1,1.303597261E-1,-9.556619096E-1,9.823468706E-1
1.070494417E0,-1.195378456E-1,2.283192994E-1,-1.364572903E0,1.388696585E0
1.080482417E0,6.775110304E-2,2.396371700E-1,-1.403481445E0,1.425403926E0
1.090470416E0,6.958101842E-1,6.319392934E-2,-1.200070846E0,1.388637937E0
1.100458417E0,1.087879735E0,-8.354867175E-2,-9.061202055E-1,1.418279424E0
1.110447417E0,1.174638674E0,1.297058612E-1,-7.390038586E-1,1.393817179E0
1.120435417E0,1.003033420E0,3.090003504E-1,-3.982538581E-1,1.122569995E0
1.130423417E0,3.695346737E-1,2.333012733E-1,-2.928601348E-1,5.260726354E-1
1.140411417E0,5.546931893E-2,9.757965043E-2,-3.497389251E-1,3.673090650E-1
1.150399417E0,-2.415484786E-2,1.282253462E-1,-3.122810769E-1,3.384444815E-1
1.160388417E0,2.678755671E-2,2.142497291E-1,-5.654111356E-1,6.052357159E-1
1.170376417E0,-1.264840454E-1,1.125166552E-1,-9.009185225E-1,9.166855489E-1
1.180364416E0,-1.472058760E0,4.278575800E-1,-1.010119953E0,1.835854411E0
1.190352417E0,-1.707796276E-1,-5.045902987E-1,-3.498652250E-1,6.373246632E-1
1.200340417E0,7.050689578E-1,-8.866856687E-1,-4.099599838E-1,1.204741009E0
1.210329417E0,-1.172583085E-1,-7.505942094E-1,-7.120025861E-1,1.041195880E0
1.220317417E0,2.099682516E-1,-4.311320208E-1,2.903142571E-3,4.795517848E-1
1.230305417E0,4.569900164E-1,-6.582020625E-2,3.740656811E-1,5.942199159E-1
1.240293417E0,-7.275582263E-1,7.539918803E-2,8.309928399E-1,1.107056959E0
1.250281417E0,5.162620720E-1,2.675972396E-1,1.234871719E0,1.364933322E0
1.260270417E0,3.768594807E-1,9.586830197E-1,1.473855025E-1,1.040585742E0
1.270258417E0,1.237592429E-2,7.489320653E-1,8.444899678E-2,7.537798319E-1
1.280246417E0,3.466200203E-2,3.380079487E-1,-1.058919060E-1,3.558987546E-1
1.290234417E0,1.498113661E-1,2.543703993E-1,-7.866750383E-1,8.402412519E-1
1.300222417E0,3.869798416E-1,2.721072701E-1,-1.225176451E0,1.313336629E0
1.310211417E0,7.255554087E-1,2.176153133E-1,-1.277873898E0,1.485512967E0
1.320199416E0,1.287441258E0,8.576396249E-2,-9.847143853E-1,1.623121336E0
1.330187417E0,1.731436276E0,1.658912091E-1,-7.701864749E-1,1.902256207E0
1.340175417E0,1.930124956E0,1.976154238E-1,-9.356305182E-1,2.154028475E0
1.350163416E0,1.730784019E0,-5.636914694E-1,-1.727635878E-1,1.828444325E0
1.360151417E0,1.621446057E-1,-8.709219407E-1,1.154818075E0,1.455472667E0
1.370140417E0,-8.222160231E-1,4.148395218E-1,-9.951013792E-1,1.355860528E0
1.380128417E0,-9.121027842E-2,3.325184365E-1,-4.772637749E-1,5.887856454E-1
1.390116417E0,1.946492775E-1,7.782179911E-2,-1.100621402E-2,2.099183422E-1
1.400104417E0,6.027328898E-1,-6.073393263E-2,8.459482634E-1,1.040482586E0
1.410092417E0,7.549973090E-1,7.830518112E-3,1.091079916E0,1.326852530E0
1.420081417E0,8.277989446E-1,2.199381197E-1,9.778696346E-1,1.299943419E0
1.430069417E0,1.227691046E0,-1.278113633E-2,7.952792162E-1,1.462825244E0
1.440057416E0,1.494085806E0,-3.516085723E-1,5.346004021E-1,1.625336449E0
1.450045417E0,1.156221260E0,-4.939903931E-1,2.508321029E-1,1.282104073E0
1.460033417E0,3.990370926E-1,-2.617140636E-1,3.259308171E-1,5.778890464E-1
1.470022417E0,5.143985644E-2,1.105897783E-1,5.003813267E-1,5.150316786E-1
1.480010417E0,2.290694971E-1,3.531638586E-1,4.263924140E-1,5.991727933E-1
1.489998417E0,3.793398696E-1,5.304445667E-1,7.383746982E-2,6.562942533E-1
1.499986417E0,2.573957486E-1,8.470829156E-1,-2.370040226E-1,9.165003786E-1
1.509974417E0,3.299099936E-1,8.277065586E-1,-2.910802424E-1,9.373721024E-1
1.519963417E0,3.734808134E-1,1.104092309E0,4.379272163E-2,1.166372817E0
1.529951417E0,2.665828939E-1,1.295489366E0,4.709651542E-1,1.403982661E0
1.539939417E0,3.142702266E-1,5.942406131E-1,9.176129079E-1,1.137497750E0
1.549927417E0,3.531906096E-1,-1.452828437E-2,7.300190270E-1,8.110995361E-1
1.559915417E0,6.090829660E-1,-1.321470737E-3,2.488370329E-1,6.579541585E-1
1.569904417E0,1.148994029E0,3.337038133E-1,9.766428888E-2,1.200451509E0
1.579892416E0,1.162402206E0,7.106070019E-1,9.755845428E-2,1.365891230E0
1.589880417E0,1.064467264E0,7.055734263E-1,1.432602918E-1,1.285086739E0
1.599868417E0,1.018270386E0,4.224486863E-1,2.351294053E-1,1.127219282E0
1.609856416E0,9.572475283E-1,-1.735080846E-2,6.405958039E-1,1.151949159E0
1.619844417E0,8.762264617E-1,-5.197219426E-1,9.210633498E-1,1.373405040E0
1.629832417E0,7.131264941E-1,-8.226407502E-1,1.081447213E0,1.534540737E0
1.639820416E0,7.278570190E-1,-8.361071071E-1,1.046698964E0,1.524608034E0
1.649808417E0,1.009521782E0,-9.047860171E-1,6.835857028E-1,1.518242859E0
1.659796417E0,1.173264432E0,-1.071556721E0,3.088166016E-1,1.618688026E0
1.669784416E0,9.849490048E-1,-1.123069594E0,2.417379284E-1,1.513224068E0
1.679773417E0,9.859489518E-1,-1.089008832E0,3.048036575E-2,1.469341561E0
1.689761417E0,1.089448543E0,-9.426096086E-1,-6.682993269E-1,1.588091619E0
1.699749417E0,9.833104688E-1,-6.189111122E-1,-1.238940797E0,1.698506621E0
1.709737417E0,4.512541171E-1,-2.840656301E-1,-1.431306590E0,1.527403718E0
1.719725417E0,-3.866559058E-1,-1.445000477E-1,-1.266754248E0,1.332309790E0
1.729714416E0,2.217160387E-1,-1.670798019E-2,-1.073802563E0,1.096580641E0
1.739702417E0,3.268211288E-1,-2.044541810E-1,-6.889604634E-1,7.894808943E-1
1.749690417E0,4.176085074E-1,-3.400990592E-1,-1.149375486E-1,5.507039818E-1
1.759678417E0,5.553571406E-1,-2.756535333E-1,1.345695752E-1,6.344410096E-1
1.769666417E0,3.983240247E-1,-3.309073824E-1,3.542371881E-1,6.274119140E-1
1.779655416E0,3.202783138E-1,-5.112808290E-1,5.545171881E-1,8.194361453E-1
1.789643417E0,3.839479141E-1,-6.067114815E-1,7.387606144E-1,1.030185453E0
1.799631417E0,5.476917698E-1,-6.163936666E-1,7.921065170E-1,1.143389768E0
1.809619416E0,5.666049543E-1,-5.723557274E-1,7.572834241E-1,1.105491039E0
1.819607417E0,4.560867678E-1,-5.371334890E-1,8.578830153E-1,1.110176019E0
1.829596417E0,2.681426021E-1,-5.942162740E-1,9.736812741E-1,1.171771590E0
1.839584417E0,-2.022332624E-3,-6.334463402E-1,1.002761816E0,1.186081623E0
1.849572417E0,-2.971839681E-1,-5.452292515E-1,1.158545675E0,1.314466176E0
1.859560417E0,-4.752916552E-1,-3.757147421E-1,1.442478281E0,1.564547000E0
1.869548417E0,-5.487743452E-1,-4.617403675E-1,1.626567340E0,1.777661037E0
1.879536417E0,-5.584574074E-1,-6.589181272E-1,1.692072528E0,1.899778201E0
1.889525417E0,-4.855007841E-1,-7.836525395E-1,1.664440341E0,1.902678103E0
1.899513416E0,-2.921149803E-1,-8.022322134E-1,1.468648079E0,1.698774519E0
1.909501417E0,-6.562056039E-2,-7.453139544E-1,1.275370120E0,1.478637174E0
1.919489417E0,6.952902205E-2,-6.727745665E-1,1.076360135E0,1.271224230E0
1.929477416E0,6.152235657E-2,-6.023401031E-1,8.728325915E-1,1.062278369E0
1.939466417E0,-1.516815249E-2,-5.457362781E-1,6.360384840E-1,8.382142395E-1
1.949454417E0,-2.133822946E-1,-5.240615999E-1,3.755654919E-1,6.791332733E-1
1.959442417E0,-4.363095841E-1,-5.635966714E-1,1.601388645E-1,7.305146933E-1
1.969430417E0,-5.751221182E-1,-5.138691721E-1,2.133648992E-2,7.715453472E-1
1.979418417E0,-5.798901937E-1,-4.125595828E-1,-5.434636116E-2,7.137447534E-1
1.989407416E0,-6.128336990E-1,-2.799317218E-1,-1.131412840E-1,6.831748397E-1
1.999395417E0,-6.686142725E-1,-1.611111834E-1,-1.302975994E-1,6.999852308E-1
2.009383417E0,-6.608476353E-1,-1.074949202E-1,-2.070732951E-1,7.008238755E-1
2.019371417E0,-6.032509166E-1,-2.476032704E-2,-3.528958368E-1,6.993284020E-1
2.029359417E0,-4.358430494E-1,4.569313981E-2,-3.301314569E-1,5.486654769E-1
2.039348416E0,-2.034343901E-1,1.895820804E-1,-3.506522602E-1,4.475309194E-1
2.049336417E0,-1.434441502E-1,3.062666309E-1,-5.926889813E-1,6.823896995E-1
2.059324417E0,-5.362883471E-2,2.983085704E-1,-6.363513100E-1,7.048454049E-1
2.069312416E0,3.624447785E-2,3.106375708E-1,-6.812965178E-1,7.496494566E-1
2.079300417E0,1.190967828E-1,3.399490781E-1,-6.968945503E-1,7.844816337E-1
2.089289417E0,1.034359293E-1,3.205383687E-1,-5.592405689E-1,6.528352404E-1
2.099277417E0,4.776250597E-2,2.194318239E-1,-4.869871098E-1,5.362723445E-1
2.109265417E0,6.426013257E-2,2.249043792E-1,-3.960962355E-1,4.600038828E-1
2.119253417E0,5.956511077E-2,2.992572811E-1,-2.026136237E-1,3.662720345E-1
2.129241417E0,-7.846079014E-2,3.200548039E-1,-3.480730534E-2,3.313649372E-1
2.139229417E0,-2.547588371E-1,2.870553115E-1,-2.090555012E-2,3.843694303E-1
2.149218417E0,-3.745993126E-1,2.770863935E-1,-8.767841399E-2,4.741192031E-1
2.159206416E0,-4.736171588E-1,2.572201860E-1,-8.449928284E-2,5.455415346E-1
2.169194417E0,-5.527291095E-1,2.006150454E-1,-1.140131038E-1,5.989614786E-1
2.179182417E0,-5.996307957E-1,1.492188969E-1,-1.873143840E-1,6.456857199E-1
2.189170416E0,-6.260829415E-1,5.487948105E-2,-1.577713269E-1,6.479841037E-1
2.199159417E0,-6.320126760E-1,-6.064790547E-2,-9.833730340E-2,6.424861215E-1
2.209147417E0,-5.916823100E-1,-1.253020307E-1,-9.884308755E-2,6.128282882E-1
2.219135417E0,-4.816935524E-1,-2.137505230E-1,-1.354238534E-1,5.441117390E-1
2.229123417E0,-4.905414494E-1,-3.008949400E-1,-1.851158309E-1,6.045134816E-1
2.239111417E0,-4.872268822E-1,-3.463843775E-1,-2.245675796E-1,6.385943701E-1
2.249100416E0,-4.142645578E-1,-3.670171550E-1,-1.758515024E-1,5.807240884E-1
2.259088417E0,-3.901006833E-1,-3.260853298E-1,4.106090248E-2,5.100942885E-1
2.269076417E0,-5.037825058E-1,-2.962991747E-1,3.693282670E-1,6.913706552E-1
2.279064417E0,-7.028755210E-1,-3.255020700E-1,6.757691449E-1,1.027934596E0
2.289052417E0,-8.339981626E-1,-3.481930675E-1,9.498187870E-1,1.311086220E0
2.299041416E0,-8.868512180E-1,-2.537849468E-1,1.093659123E0,1.430734832E0
2.309029417E0,-9.374370886E-1,-1.452708569E-1,9.342014587E-1,1.331399370E0
2.319017417E0,-9.643818623E-1,-3.704942018E-2,6.374833310E-1,1.156628736E0
2.329005416E0,-9.624370784E-1,1.307150906E-1,3.578887743E-1,1.035111559E0
2.338993417E0,-9.661821469E-1,2.809758152E-1,8.347660482E-2,1.009665139E0
2.348981417E0,-9.114733315E-1,3.757508487E-1,-8.632302940E-2,9.896585268E-1
2.358970417E0,-8.743280900E-1,4.694230972E-1,-2.044239217E-1,1.013211130E0
2.368958417E0,-8.373993418E-1,5.756779692E-1,-3.067782623E-1,1.061487486E0
2.378946417E0,-8.186951222E-1,6.663030875E-1,-3.683634764E-1,1.117995151E0
2.388934417E0,-8.063020948E-1,6.664470752E-1,-3.669326627E-1,1.108564094E0
2.398922417E0,-6.890015401E-1,5.652192007E-1,-3.405178660E-1,9.540169203E-1
2.408911417E0,-4.866443168E-1,5.274290845E-1,-2.470460308E-1,7.589702705E-1
2.418899416E0,-1.764816130E-1,6.207390980E-1,-2.204400301E-2,6.457156693E-1
2.428887417E0,-2.468891061E-1,6.883524992E-1,3.531408352E-1,8.120910314E-1
2.438875417E0,-6.183994078E-1,7.855552965E-1,9.253633922E-1,1.362282041E0
2.448863416E0,-8.751366869E-1,8.304623513E-1,1.313016248E0,1.783127479E0
2.458852417E0,-1.186898531E0,7.541590375E-1,1.435323628E0,2.009387442E0
2.468840417E0,-1.452848464E0,6.500531635E-1,1.449665093E0,2.152874046E0
2.478828417E0,-1.565653094E0,7.111581751E-1,1.411405592E0,2.224653076E0
2.488816417E0,-1.567335923E0,7.844145048E-1,1.165900303E0,2.105034804E0
2.498804417E0,-1.536640526E0,7.614392596E-1,7.500890100E-1,1.871813926E0
2.508793416E0,-1.491215846E0,7.927758770E-1,4.687917441E-1,1.752707617E0
2.518781417E0,-1.544653989E0,9.174695780E-1,2.819293499E-1,1.818568264E0
2.528769417E0,-1.765444413E0,1.067741558E0,4.698003888E-2,2.063752198E0
2.538757417E0,-2.080314053E0,1.219412705E0,-7.217452168E-2,2.412443380E0
2.548745417E0,-2.411232106E0,1.321469860E0,-2.818995291E-1,2.764017042E0
2.558733417E0,-2.664225340E0,1.450889793E0,-5.618039882E-1,3.085255512E0
2.568722417E0,-2.673037386E0,1.628559048E0,-7.393944526E-1,3.216214794E0
2.578710417E0,-2.529508415E0,1.761205913E0,-8.697271353E-1,3.202605873E0
2.588698416E0,-2.415831818E0,1.827002145E0,-9.786636865E-1,3.183074430E0
2.598686417E0,-2.369112419E0,1.798842978E0,-1.016398693E0,3.143500599E0
2.608674417E0,-2.247018756E0,1.686941450E0,-9.464408505E-1,2.964897136E0
2.618663417E0,-1.976300418E0,1.517917595E0,-7.419713205E-1,2.600068963E0
2.628651417E0,-1.637794872E0,1.391434719E0,-5.763957149E-1,2.225015649E0
2.638639417E0,-1.264216410E0,1.291273085E0,-3.075413239E-1,1.833087825E0
2.648627417E0,-9.612851769E-1,1.215494924E0,-7.462333560E-2,1.551472121E0
2.658615417E0,-7.470757936E-1,1.088274714E0,8.364968240E-2,1.322672055E0
2.668604417E0,-6.954862484E-1,9.456504531E-1,1.790709794E-1,1.187443606E0
2.678592416E0,-6.903781208E-1,7.745616540E-1,1.712017965E-1,1.051607227E0
2.688580417E0,-6.461259542E-1,6.457273203E-1,9.121773362E-2,9.180213483E-1
2.698568417E0,-4.584265311E-1,4.931888129E-1,-1.596576387E-1,6.920120311E-1
2.708556416E0,-7.294416144E-2,3.301191777E-1,-5.307342231E-1,6.292680969E-1
2.718545417E0,4.022380047E-1,1.947353777E-1,-8.094867808E-1,9.246545993E-1
2.728533417E0,8.313312475E-1,1.221992058E-1,-9.522529829E-1,1.269972453E0
2.738521417E0,1.107180663E0,5.577527449E-2,-9.279461074E-1,1.445698405E0
2.748509417E0,1.242219769E0,-1.005006270E-1,-8.667801386E-1,1.518063945E0
2.758497417E0,1.251065145E0,-3.229626243E-1,-6.940481257E-1,1.466687306E0
2.768486416E0,1.519027981E0,-3.483376399E-1,-2.612863398E-1,1.580207477E0
2.778474417E0,1.836488814E0,-3.233752915E-1,5.137129784E-2,1.865449478E0
2.788462417E0,1.884216566E0,-5.238850871E-1,8.828126192E-2,1.957682618E0
2.798450417E0,1.806444212E0,-7.274697872E-1,2.057284355E-2,1.947530802E0
2.808438417E0,1.849545939E0,-8.188937813E-1,-1.125577319E-1,2.025852031E0
2.818426417E0,2.017255194E0,-8.727295344E-1,-3.264108735E-1,2.222052973E0
2.828415417E0,2.285445487E0,-8.565694383E-1,-5.494125688E-1,2.501764667E0
2.838403417E0,2.721600559E0,-7.290274854E-1,-8.069666308E-1,2.930833639E0
2.848391416E0,3.017016512E0,-6.351871294E-1,-1.083563320E0,3.268020928E0
2.858379417E0,3.196573395E0,-5.620538105E-1,-1.304820791E0,3.498077079E0
2.868367417E0,3.266119300E0,-5.017639008E-1,-1.529156821E0,3.641101877E0
2.878356417E0,3.326389768E0,-4.946469623E-1,-1.719170280E0,3.776915535E0
2.888344417E0,3.407382768E0,-4.986031884E-1,-1.811246384E0,3.890947948E0
2.898332417E0,3.538699245E0,-5.238312927E-1,-1.838013768E0,4.021826225E0
2.908320417E0,3.722486881E0,-5.730062301E-1,-1.924546713E0,4.229553731E0
2.918308417E0,3.863171474E0,-6.474177504E-1,-2.063868905E0,4.427504764E0
2.928297417E0,3.854030814E0,-7.545043887E-1,-2.329806120E0,4.566270573E0
2.938285416E0,3.802994562E0,-8.202693388E-1,-2.552886168E0,4.653260922E0
2.948273417E0,3.733179392E0,-8.306193490E-1,-2.567231727E0,4.606217061E0
2.958261417E0,3.590996157E0,-7.604727879E-1,-2.622020137E0,4.510938024E0
2.968249416E0,3.341795427E0,-7.225345910E-1,-2.598390954E0,4.294332132E0
2.978238417E0,3.184625779E0,-8.560209695E-1,-2.574613836E0,4.183688523E0
2.988226417E0,3.175781280E0,-1.080622024E0,-2.652939044E0,4.276846534E0
2.998214417E0,3.160150504E0,-1.469097730E0,-2.607846487E0,4.352661558E0
3.008202417E0,3.285985508E0,-1.719483983E0,-2.231920221E0,4.328486317E0
3.018190417E0,3.566899781E0,-1.769916510E0,-1.734653122E0,4.343316700E0
3.028178417E0,3.545188777E0,-1.804953465E0,-1.336615026E0,4.196755914E0
3.038167417E0,3.258352736E0,-1.882379663E0,-1.085309299E0,3.916390178E0
3.048155417E0,2.729620015E0,-1.929051700E0,-1.060574992E0,3.506691489E0
3.058143417E0,2.286374464E0,-1.945069270E0,-1.088192561E0,3.192955638E0
3.068131417E0,1.991066392E0,-1.996705739E0,-8.763526154E-1,2.952824596E0
3.078119417E0,1.795856805E0,-2.175724094E0,-5.590569663E-1,2.876007943E0
3.088108417E0,1.624587035E0,-2.451404086E0,1.598453343E-2,2.940904713E0
3.098096417E0,1.594218058E0,-2.681129056E0,1.010807000E0,3.278980790E0
3.108084416E0,1.588606047E0,-2.670436252E0,1.949089816E0,3.667949026E0
3.118072417E0,1.518646743E0,-2.683431397E0,2.654504929E0,4.068597843E0
3.128060417E0,1.394503630E0,-2.758859894E0,3.217556128E0,4.461907185E0
3.138049417E0,1.048915059E0,-2.824756553E0,3.624436968E0,4.713386863E0
3.148037417E0,6.790356919E-1,-2.806751221E0,3.784235525E0,4.760187013E0
3.158025417E0,5.260060184E-1,-2.667854122E0,3.654558315E0,4.555208494E0
3.168013417E0,3.879721141E-1,-2.569980795E0,3.335039554E0,4.228216229E0
3.178001417E0,5.950404391E-2,-2.484174952E0,2.823239200E0,3.761029846E0
3.187990417E0,-3.185468070E-1,-2.290742334E0,2.265527678E0,3.237528095E0
3.197978416E0,-6.588470104E-1,-2.093234060E0,1.769644030E0,2.819104150E0
3.207966417E0,-1.079949448E0,-1.800476983E0,1.320649204E0,2.480347253E0
3.217954417E0,-1.576173405E0,-1.451204373E0,9.136157513E-1,2.329165188E0
3.227942416E0,-2.216092247E0,-1.076686117E0,6.005751210E-1,2.535943280E0
3.237931417E0,-2.880751829E0,-7.876732311E-1,3.944005430E-1,3.012426265E0
3.247919417E0,-3.359234748E0,-6.399893014E-1,2.286354876E-1,3.427290268E0
3.257907417E0,-3.729639487E0,-5.351085252E-1,2.329448855E-1,3.775025186E0
3.267895417E0,-3.792176043E0,-4.554092216E-1,2.790028185E-1,3.829600407E0
3.277883417E0,-3.695599337E0,-4.025761199E-1,4.966075337E-1,3.750485439E0
3.287871417E0,-3.723458103E0,-4.240682188E-1,1.183301032E0,3.929907815E0
3.297860417E0,-3.886839541E0,-4.985925172E-1,1.990537219E0,4.395265013E0
3.307848417E0,-3.955579993E0,-5.774955761E-1,2.601634989E0,4.769551220E0
3.317836417E0,-3.990400162E0,-6.028601033E-1,3.040711768E0,5.052985436E0
3.327824417E0,-4.150935468E0,-6.249034850E-1,3.341193164E0,5.365104042E0
3.337812417E0,-4.269270249E0,-7.523140217E-1,3.421541508E0,5.522643492E0
3.347801417E0,-4.126199992E0,-8.079353683E-1,3.268208218E0,5.325361104E0
3.357789417E0,-3.720160858E0,-7.596284500E-1,2.953781798E0,4.810557047E0
3.367777416E0,-3.505237384E0,-7.164543638E-1,2.645811288E0,4.449754302E0
3.377765417E0,-3.385615046E0,-5.248207878E-1,2.510053559E0,4.247139622E0
3.387753417E0,-3.231524541E0,-1.470988427E-1,2.402154304E0,4.029234944E0
3.397742417E0,-2.933914713E0,1.014515305E-1,2.200591425E0,3.668889556E0
3.407730417E0,-2.487938805E0,3.271457224E-1,1.923109467E0,3.161520811E0
3.417718417E0,-1.938919169E0,6.581596702E-1,1.724135150E0,2.676793550E0
3.427706417E0,-1.377982907E0,9.421653664E-1,1.581070156E0,2.299194491E0
3.437694417E0,-8.080384254E-1,1.079879282E0,1.485379887E0,2.006344628E0
3.447682417E0,-3.943496722E-1,1.257410982E0,1.530407540E0,2.019589384E0
3.457671416E0,-1.681741083E-1,1.403278547E0,1.647809106E0,2.170886469E0
3.467659417E0,-4.187425017E-2,1.361642278E0,1.716273569E0,2.191213844E0
3.477647417E0,4.626141608E-2,1.330932702E0,1.740236628E0,2.191334182E0
3.487635416E0,4.963175118E-2,1.295029044E0,1.636671329E0,2.087643785E0
3.497623417E0,-6.300842643E-2,1.114866974E0,1.365631834E0,1.764043292E0
3.507612417E0,-1.897111577E-1,8.605823824E-1,1.021708549E0,1.349251911E0
3.517600417E0,-1.228359675E-1,6.354917693E-1,7.340214461E-1,9.786347363E-1
3.527588417E0,-2.201067388E-2,4.254287928E-1,5.776668996E-1,7.177556509E-1
3.537576417E0,-3.717659712E-3,1.104327075E-1,3.782645667E-1,3.940726916E-1
3.547564417E0,-1.948058367E-2,-2.145860901E-1,6.704242051E-2,2.256576375E-1
3.557553417E0,3.780224919E-2,-5.536327967E-1,-3.410499626E-1,6.513473426E-1
3.567541417E0,2.559706360E-1,-8.944019468E-1,-7.025686884E-1,1.165795253E0
3.577529417E0,5.347723103E-1,-1.146827855E0,-8.798059809E-1,1.541185945E0
3.587517417E0,8.359945482E-1,-1.384778249E0,-9.566986209E-1,1.879300384E0
3.597505417E0,1.110980330E0,-1.718722383E0,-9.774819642E-1,2.267984769E0
3.607494417E0,1.097811815E0,-2.015050794E0,-9.044344532E-1,2.466499982E0
3.617482417E0,8.922047094E-1,-2.219219192E0,-7.697894490E-1,2.512675638E0
3.627471250E0,6.412547851E-1,-2.194741870E0,-5.685347182E-1,2.356126334E0
3.637459250E0,3.434905905E-1,-1.976056297E0,-4.374723029E-1,2.052843465E0
3.647447250E0,8.675806224E-2,-1.759185846E0,-5.737977970E-1,1.852432378E0
3.657436250E0,-1.140876558E-1,-1.557574727E0,-8.466329724E-1,1.776469086E0
3.667424250E0,-1.616901308E-1,-1.345732882E0,-9.943196064E-1,1.681015219E0
3.677412250E0,-7.819247603E-2,-1.111077539E0,-1.041172761E0,1.524679665E0
3.687400250E0,1.236563319E-1,-9.121273425E-1,-9.799448115E-1,1.344454912E0
3.697388250E0,3.361964813E-1,-7.270505418E-1,-8.935551238E-1,1.200029718E0
3.707376250E0,4.769933411E-1,-5.542211728E-1,-9.620201719E-1,1.208373521E0
3.717365250E0,5.570303214E-1,-4.017114629E-1,-1.164843126E0,1.352225716E0
3.727353250E0,7.302985239E-1,-2.053145988E-1,-1.417125338E0,1.607399839E0
3.737341250E0,1.012950590E0,-4.716086403E-2,-1.586136768E0,1.882584099E0
3.747329250E0,1.281472566E0,1.508875461E-1,-1.652679836E0,2.096733085E0
3.757317250E0,1.475885470E0,2.115013915E-1,-1.643801424E0,2.219246242E0
3.767306250E0,1.557828058E0,7.987881303E-2,-1.593808315E0,2.230119689E0
3.777294250E0,1.504567525E0,4.845470667E-2,-1.411068208E0,2.063294643E0
3.787282250E0,1.472944613E0,2.781096563E-2,-1.349828564E0,1.998093200E0
3.797270250E0,1.452456554E0,-1.547566487E-1,-1.408315923E0,2.029022770E0
3.807258250E0,1.356923868E0,-3.281026192E-1,-1.362257406E0,1.950548372E0
3.817247250E0,1.448010331E0,-5.157638893E-1,-1.172069115E0,1.933000859E0
3.827235250E0,1.622963994E0,-6.451035686E-1,-8.887639153E-1,1.959610175E0
3.837223250E0,1.531237552E0,-7.819716842E-1,-3.211863863E-1,1.749093723E0
3.847211250E0,1.282948696E0,-9.532459863E-1,2.732883346E-1,1.621518357E0
3.857199250E0,1.068682156E0,-1.085224514E0,6.259578842E-1,1.646698840E0
3.867188250E0,1.011907446E0,-1.088974626E0,8.773559976E-1,1.726144827E0
3.877176250E0,8.674388275E-1,-1.052286344E0,9.826509029E-1,1.680880563E0
3.887164250E0,5.944285280E-1,-9.699022186E-1,6.790161037E-1,1.324808838E0
3.897152250E0,5.338525432E-1,-8.584395971E-1,3.080710816E-1,1.056799352E0
3.907140250E0,4.340142596E-1,-8.009954542E-1,8.738839209E-2,9.152042538E-1
3.917128250E0,5.041217905E-1,-8.441489290E-1,1.595249069E-1,9.960795098E-1
3.927117250E0,6.970854619E-1,-8.812098243E-1,4.530890465E-1,1.211506739E0
3.937105250E0,7.182591069E-1,-7.848233713E-1,8.797983795E-1,1.380539408E0
3.947093250E0,6.756212103E-1,-6.497893810E-1,1.275412220E0,1.582834985E0
3.957081250E0,3.905092210E-1,-4.704055756E-1,1.500833493E0,1.620580152E0
3.967069250E0,1.825518268E-1,-2.935772958E-1,1.527112049E0,1.565753496E0
3.977058250E0,1.352683175E-1,-1.314101784E-1,1.322996276E0,1.336370195E0
3.987046250E0,-8.707322717E-2,4.460577697E-2,1.035829575E0,1.040439489E0
3.997034250E0,-3.235521698E-1,3.826426328E-1,8.466095835E-1,9.837932597E-1
4.007022250E0,-2.899727798E-1,6.130293980E-1,8.607849884E-1,1.095828477E0
4.017010250E0,-6.206597221E-1,2.722422677E-1,1.778045894E0,1.902835133E0
4.026999250E0,-6.164397866E-1,7.736035877E-1,6.682735991E-1,1.193754633E0
4.036987250E0,5.050590992E-2,1.250032088E0,1.418575448E-1,1.259068954E0
4.046975250E0,2.115967011E-1,1.159523329E0,9.116581035E-1,1.490096645E0
4.056963250E0,8.359881163E-2,1.040520796E0,5.561280960E-1,1.182772484E0
4.066951250E0,-1.866127181E-1,8.197416276E-1,3.398103529E-1,9.067919930E-1
4.076939250E0,-6.188827533E-1,7.104861107E-1,6.802498662E-1,1.162130051E0
4.086928250E0,-7.363872296E-1,9.436245391E-1,1.064470991E0,1.601808951E0
4.096916250E0,-1.072954132E0,1.180149382E0,1.260125259E0,2.032707259E0
4.106904250E0,-1.485006250E0,1.194384721E0,1.281119687E0,2.296315761E0
4.116892250E0,-1.709234691E0,1.151665841E0,1.088936327E0,2.331008314E0
4.126880250E0,-1.876079727E0,1.194065463E0,9.265655798E-1,2.409147410E0
4.136869250E0,-1.818316838E0,1.447178273E0,8.462786311E-1,2.473214224E0
4.146857250E0,-1.856219659E0,1.843672411E0,7.798969460E-1,2.730003412E0
4.156845250E0,-2.215397159E0,2.116265804E0,6.258479565E-1,3.127019538E0
4.166833250E0,-2.845783140E0,2.279126840E0,4.438217944E-1,3.672857010E0
4.176821250E0,-3.370468419E0,2.394677469E0,3.224564016E-1,4.147109315E0
4.186810250E0,-3.602145628E0,2.491554723E0,2.481827295E-1,4.386900127E0
4.196798250E0,-3.728433791E0,2.394233665E0,1.326382399E-1,4.432963601E0
4.206786250E0,-3.601208904E0,1.987937255E0,-1.846363592E-1,4.117607398E0
4.216774250E0,-2.940934296E0,1.644677629E0,-5.461790586E-1,3.413556884E0
4.226762250E0,-2.094852131E0,1.596333727E0,-6.918630213E-1,2.723116094E0
4.236751250E0,-1.412435287E0,1.685915995E0,-4.029813319E-1,2.235996452E0
4.246739250E0,-7.763915402E-1,1.734426835E0,1.589939797E-1,1.906908323E0
4.256727250E0,-2.488469732E-1,1.703457642E0,1.078994306E0,2.031728689E0
4.266715250E0,2.721118748E-1,1.627311106E0,2.133434399E0,2.696985102E0
4.276703250E0,6.858199239E-1,1.464948838E0,3.064351476E0,3.465064796E0
4.286691250E0,7.800776249E-1,1.190575114E0,3.445618588E0,3.728039385E0
4.296680250E0,6.727081275E-1,9.587407610E-1,3.456313730E0,3.649359488E0
4.306668250E0,5.584950489E-1,1.029476429E0,3.389447311E0,3.586096975E0
4.316656250E0,5.132568955E-1,1.288538342E0,3.198623428E0,3.486395780E0
4.326644250E0,4.775385940E-1,1.547805346E0,3.016887288E0,3.424230338E0
4.336632250E0,1.553657824E-1,1.629493872E0,2.792995647E0,3.237315784E0
4.346621250E0,-4.542836326E-1,1.345273291E0,2.220574284E0,2.635732156E0
4.356609250E0,-1.144462071E0,8.036071862E-1,1.258269353E0,1.881175087E0
4.366597250E0,-1.449241170E0,2.666692865E-1,3.265418512E-1,1.509318409E0
4.376585250E0,-1.072824908E0,-2.684789997E-1,-6.694629228E-1,1.292754757E0
4.386573250E0,-4.083888370E-1,-7.452972168E-1,-1.578684492E0,1.792901031E0
4.396562250E0,1.157111353E-1,-9.578204092E-1,-1.924920934E0,2.153167343E0
4.406550250E0,3.912009466E-1,-1.046125645E0,-1.618982332E0,1.966855571E0
4.416538250E0,3.194029856E-1,-1.220760342E0,-9.146167946E-1,1.558460125E0
4.426526250E0,1.511668968E-1,-1.404237198E0,-3.114256293E-1,1.446277795E0
4.436514250E0,-6.388960183E-2,-1.691709124E0,1.256502324E-1,1.697571684E0
4.446503250E0,-3.378117746E-1,-2.202203210E0,5.520672047E-1,2.295341798E0
4.456491250E0,-4.785893387E-1,-2.705516623E0,6.163754672E-1,2.815810126E0
4.466479250E0,-3.834364289E-1,-3.001364392E0,4.970560151E-1,3.066313160E0
4.476467250E0,-2.266217065E-1,-2.997348817E0,3.761332566E-1,3.029345400E0
4.486455250E0,2.618453336E-1,-2.932254981E0,8.768835425E-2,2.945228599E0
4.496443250E0,9.446972108E-1,-2.880709729E0,-3.153824401E-1,3.048016969E0
4.506432250E0,1.377364857E0,-2.756268116E0,-7.227684796E-1,3.164892123E0
4.516420250E0,1.463372721E0,-2.782093805E0,-1.018892530E0,3.304489015E0
4.526408250E0,1.489612101E0,-2.981661907E0,-1.342037149E0,3.593092769E0
4.536396250E0,1.460152075E0,-3.018428907E0,-1.427759085E0,3.644372806E0
4.546384250E0,1.441972497E0,-2.855745626E0,-1.332340711E0,3.465501339E0
4.556373250E0,1.415199850E0,-2.711503587E0,-1.258219067E0,3.307288548E0
4.566361250E0,1.260333420E0,-2.498043086E0,-1.150188249E0,3.025159929E0
4.576349250E0,9.378401810E-1,-2.082315701E0,-1.015858995E0,2.499510428E0
4.586337250E0,3.906127167E-1,-1.675849721E0,-8.818010509E-1,1.933552087E0
4.596325250E0,-2.969496775E-1,-1.298618942E0,-8.595418704E-1,1.585371405E0
4.606314250E0,-5.791824979E-1,-8.451524574E-1,-9.110330361E-1,1.371027438E0
4.616302250E0,-3.183937562E-1,-2.172378024E-1,-7.493364733E-1,8.426576986E-1
4.626290250E0,1.274207693E-1,3.772059648E-1,-6.068912834E-1,7.258356716E-1
4.636278250E0,3.914634866E-1,7.211309668E-1,-4.689788550E-1,9.451003646E-1
4.646266250E0,4.703909576E-1,8.749323267E-1,-2.213884485E-1,1.017736250E0
4.656254250E0,2.887986588E-1,9.633407655E-1,2.637000704E-1,1.039696024E0
4.666243250E0,-3.130049622E-1,9.664587933E-1,8.270301819E-1,1.309959399E0
4.676231250E0,-1.035758824E0,8.938448533E-1,1.163587729E0,1.796020981E0
4.686219250E0,-1.486055825E0,9.065189856E-1,1.268003798E0,2.153595184E0
4.696207250E0,-1.504233649E0,1.013161089E0,1.147497361E0,2.146151080E0
4.706195250E0,-1.388784469E0,1.001481861E0,8.481748831E-1,1.910782261E0
4.716184250E0,-1.336302200E0,9.820922014E-1,4.003892612E-1,1.706024684E0
4.726172250E0,-1.219675391E0,1.254728864E0,9.844664633E-2,1.752610716E0
4.736160250E0,-9.241734838E-1,1.648991705E0,3.016286194E-2,1.890550203E0
4.746148250E0,-5.168494248E-1,1.849335440E0,2.916532695E-2,1.920423264E0
4.756136250E0,-1.920365953E-1,1.906551906E0,8.953607440E-2,1.918289586E0
4.766125250E0,3.238188028E-2,1.885153436E0,1.627332741E-1,1.892441329E0
4.776113250E0,1.948333186E-1,1.809227633E0,2.115838373E-1,1.831947699E0
4.786101250E0,1.069467437E-1,1.841468888E0,2.808943927E-1,1.865836791E0
4.796089250E0,-4.507688713E-1,1.811060443E0,3.134464270E-1,1.892453742E0
4.806077250E0,-1.291427743E0,1.398165157E0,1.683542025E-1,1.910757588E0
4.816066250E0,-1.631053324E0,1.039631727E0,-3.923364758E-2,1.934608062E0
4.826054250E0,-1.170969254E0,9.964734283E-1,-2.765545893E-1,1.562245412E0
4.836042250E0,-2.429424548E-1,1.014593292E0,-4.945651013E-1,1.154562785E0
4.846030250E0,3.919084597E-1,9.285059783E-1,-4.642467034E-1,1.109612813E0
4.856018250E0,8.626976126E-1,8.330189002E-1,-2.878882474E-1,1.233307464E0
4.866006250E0,1.070902344E0,8.071393429E-1,8.494308650E-2,1.343696795E0
4.875995250E0,1.043285944E0,7.642994982E-1,6.048640537E-1,1.427746409E0
4.885983250E0,7.312481117E-1,7.525503954E-1,1.004231806E0,1.452424669E0
4.895971250E0,3.197900712E-1,6.726382533E-1,1.251785960E0,1.456597405E0
4.905959250E0,-1.450220579E-1,5.666503067E-1,1.386701691E0,1.505013470E0
4.915947250E0,-6.645126700E-1,3.977132830E-1,1.333786143E0,1.542315927E0
4.925936250E0,-1.006822708E0,2.469590534E-1,9.820831382E-1,1.427994408E0
4.935924250E0,-1.119286884E0,2.060687435E-1,4.961198759E-1,1.241532274E0
4.945912250E0,-1.014031740E0,1.693382889E-1,-1.643950528E-1,1.041134746E0
4.955900250E0,-7.947208071E-1,1.280413051E-1,-9.599911880E-1,1.252820346E0
4.965888250E0,-5.209775591E-1,7.427922696E-2,-1.586157818E0,1.671176724E0
4.975877250E0,-2.596374249E-1,1.624531925E-2,-1.983435776E0,2.000423200E0
4.985865250E0,-1.468908280E-1,1.062322140E-2,-2.183685955E0,2.188646641E0
4.995853250E0,-1.834692550E-1,-6.392176151E-2,-2.299794116E0,2.307986121E0
5.005841250E0,-2.295540851E-1,2.980033457E-3,-2.317414700E0,2.328758221E0
5.015829250E0,-3.581840587E-1,6.121362358E-2,-2.376576244E0,2.404195826E0
5.025818250E0,-6.451133627E-1,-1.414996952E-1,-2.218169909E0,2.314405142E0
5.035806250E0,-7.338740963E-1,-2.717154336E-1,-1.846147245E0,2.005158377E0
5.045794250E0,-6.183138192E-1,-1.134602496E-1,-1.419668292E0,1.552624638E0
5.055782250E0,-6.452560347E-1,-1.298900485E-2,-1.017856988E0,1.205220691E0
5.065770250E0,-7.649210572E-1,-8.707410425E-2,-7.749893779E-1,1.092380272E0
5.075758250E0,-6.287388200E-1,-2.015967929E-1,-5.693796408E-1,8.718640640E-1
5.085747250E0,-1.669315749E-1,-1.511771294E-1,-2.993347567E-1,3.745957445E-1
5.095735250E0,1.713748741E-1,-1.311059770E-1,1.021005714E-1,2.387103922E-1
5.105723250E0,-2.157447159E-2,-4.632930225E-1,2.627709478E-1,5.330613975E-1
5.115711250E0,-1.809836036E-1,-7.469505170E-1,1.945029509E-1,7.927935025E-1
5.125699250E0,-6.302421391E-2,-8.318836632E-1,-6.333119273E-2,8.366679871E-1
5.135688250E0,6.164310157E-2,-8.108056203E-1,-3.909992176E-1,9.022671522E-1
5.145676250E0,4.798456129E-1,-7.588614415E-1,-6.483609062E-1,1.107472060E0
5.155664250E0,9.181543601E-1,-6.115200855E-1,-8.304116267E-1,1.380777938E0
5.165652250E0,1.097427068E0,-3.487215096E-1,-7.158482999E-1,1.355873021E0
5.175640250E0,1.048491136E0,-1.851143691E-1,-3.730295545E-1,1.128163127E0
5.185629250E0,7.882382914E-1,-1.298546728E-1,1.015614581E-1,8.052928473E-1
5.195617250E0,3.960433182E-1,-1.829805739E-1,4.217965025E-1,6.068315168E-1
5.205605250E0,-6.427551806E-3,-2.435309771E-1,5.553492469E-1,6.064333733E-1
5.215593250E0,4.457946450E-2,-2.863612470E-1,6.035636330E-1,6.695365199E-1
5.225581250E0,3.796006554E-1,-3.769765712E-1,6.697254628E-1,8.571698714E-1
5.235570250E0,7.686735079E-1,-5.185888253E-1,9.153710854E-1,1.302957235E0
5.245558250E0,1.281250080E0,-5.954159765E-1,1.251483074E0,1.887414061E0
5.255546250E0,1.524537520E0,-5.613902977E-1,1.615206200E0,2.290909162E0
5.265534250E0,1.271021546E0,-4.577150711E-1,1.879575192E0,2.314692584E0
5.275522250E0,8.401378852E-1,-4.758931875E-1,1.779172652E0,2.024292795E0
5.285510250E0,5.107329449E-1,-5.670670670E-1,1.586910939E0,1.760880328E0
5.295499250E0,5.093986103E-1,-6.359908292E-1,1.489944223E0,1.698206427E0
5.305487250E0,6.591455108E-1,-6.293102391E-1,1.359059563E0,1.636321203E0
5.315475250E0,8.079007235E-1,-6.449265441E-1,1.092834665E0,1.504300978E0
5.325463250E0,7.384480807E-1,-7.418135919E-1,8.244620848E-1,1.332415364E0
5.335451250E0,7.338135776E-1,-7.124088214E-1,5.154887778E-1,1.145311039E0
5.345440250E0,7.385445598E-1,-6.847203550E-1,1.028437525E-1,1.012357086E0
5.355428250E0,7.219606867E-1,-6.795712969E-1,-2.284928155E-1,1.017474003E0
5.365416250E0,7.389328149E-1,-4.846983634E-1,-4.588830525E-1,9.957549218E-1
5.375404250E0,6.286525735E-1,-2.518711531E-1,-8.289726269E-1,1.070438579E0
5.385392250E0,3.721530569E-1,-1.287149043E-1,-1.082878026E0,1.152254418E0
5.395381250E0,1.887954837E-1,-5.009645864E-2,-9.308223528E-1,9.510960216E-1
5.405369250E0,1.113400492E-1,-1.356057018E-2,-5.454054719E-1,5.568192026E-1
5.415357250E0,1.440742242E-1,6.016024768E-2,-3.493781519E-1,3.826770577E-1
5.425345250E0,1.806675616E-1,1.219324265E-1,-3.954711682E-1,4.515592201E-1
5.435333250E0,1.933919799E-1,1.596485755E-1,-6.723461848E-1,7.175914700E-1
5.445321250E0,1.069116604E-1,2.117534065E-1,-1.080553758E0,1.106284788E0
5.455310250E0,3.185221025E-1,2.051451758E-1,-1.106354012E0,1.169427242E0
5.465298250E0,5.648343077E-1,2.762382549E-1,-1.655239747E0,1.770639429E0
5.475286250E0,-4.218786559E-1,3.422761238E-1,-1.881574940E0,1.958432741E0
5.485274250E0,-9.993745244E-1,5.386674330E-1,-1.382361887E0,1.788808662E0
5.495262250E0,-1.024107662E0,6.496744832E-1,-8.306893694E-1,1.470006213E0
5.505251250E0,-6.334779882E-1,6.576655805E-1,-1.726659393E-1,9.293179779E-1
5.515239250E0,-5.997429161E-1,4.232322863E-1,8.547109008E-2,7.390009748E-1
5.525227250E0,-9.920191656E-1,1.631484264E-1,-3.079535526E-1,1.051453672E0
5.535215250E0,-9.552923656E-1,1.754711410E-1,-6.380394012E-1,1.162096340E0
5.545203250E0,-4.412775247E-1,-3.160452220E-1,-9.172047722E-1,1.065774381E0
5.555192250E0,2.436884134E-1,-6.089904338E-1,-9.337617481E-1,1.141124180E0
5.565180250E0,4.469842610E-1,3.789580464E-1,-2.340798301E-1,6.310289196E-1
5.575168250E0,3.845892075E-1,6.076385576E-1,5.715565592E-1,9.185915172E-1
5.585156250E0,6.383712307E-1,4.781619072E-2,7.192496252E-1,9.628729094E-1
5.595144250E0,5.159172325E-1,-1.750858095E-1,4.165538889E-1,6.858154080E-1
5.605133250E0,-3.442282167E-1,-5.471321547E-1,-4.172397673E-2,6.477557797E-1
5.615121250E0,-5.384870464E-1,4.316943768E-1,3.929562807E-2,6.912832129E-1
5.625109250E0,-1.782769275E-1,1.172279615E0,3.479613715E-1,1.235758583E0
5.635097417E0,-6.333820939E-2,-2.289974302E-2,3.832522416E-1,3.891251826E-1
5.645085417E0,3.574160269E-1,-9.773650199E-1,8.263975132E-1,1.328879772E0
5.655073417E0,7.086777131E-1,-1.285766177E0,1.165215009E0,1.874338491E0
5.665062417E0,7.355522472E-1,-1.054658194E0,1.235947607E0,1.783509883E0
5.675050416E0,7.215459730E-1,-8.253303963E-1,8.778746456E-1,1.404443928E0
5.685038417E0,7.183275193E-1,-3.203478956E-1,3.688493800E-1,8.687157558E-1
5.695026417E0,7.600270839E-1,3.557077628E-1,-2.727305102E-1,8.823554341E-1
5.705014416E0,2.211611380E-1,5.920908111E-1,-6.842458534E-1,9.314913663E-1
5.715003417E0,1.811024483E-1,6.989391755E-1,-3.775687480E-1,8.147835462E-1
5.724991417E0,4.106030314E-1,4.142880929E-1,8.833499783E-1,1.058554041E0
5.734979417E0,4.423211065E-1,6.808804885E-2,1.588389115E0,1.650231476E0
5.744967417E0,5.348337060E-1,-9.278391033E-2,1.404015296E0,1.505295618E0
5.754955417E0,2.498798838E-1,3.711929440E-2,1.008955772E0,1.040100739E0
5.764944416E0,-2.287543322E-1,2.657916194E-1,1.976405668E-1,4.025363625E-1
5.774932417E0,-6.436645688E-1,7.871287823E-1,-7.249477369E-1,1.248769402E0
5.784920417E0,-5.183596145E-1,7.755444248E-1,-1.012100405E0,1.376413119E0
5.794908416E0,-4.868516006E-1,-4.069352192E-1,-7.221890205E-1,9.613416328E-1
5.804896417E0,-1.385866123E-1,-1.102717702E0,-3.266085094E-1,1.158389269E0
5.814884417E0,9.177044168E-2,-9.707734537E-1,5.244730246E-1,1.107201366E0
5.824873417E0,4.889345250E-1,-1.308972022E0,6.385393381E-1,1.536293334E0
5.834861417E0,3.671427239E-1,-4.977603853E-1,6.835184598E-1,9.218224698E-1
5.844849417E0,1.370185499E0,-1.149491407E0,1.220984582E0,2.165535072E0
5.854837417E0,2.319179098E0,-6.698027922E-1,8.862566292E-1,2.571512839E0
5.864825417E0,1.704905412E0,-3.182600011E-1,1.186633945E-1,1.738411026E0
5.874814417E0,1.481889099E-1,-6.803539467E-1,-8.896766657E-1,1.129763699E0
5.884802416E0,5.099473715E-2,-7.395219219E-1,-2.595767893E0,2.699537755E0
5.894790417E0,3.702018410E-2,-3.804318371E-1,-2.145121813E0,2.178909468E0
5.904778417E0,2.069569355E-1,-4.488009909E-1,-1.825446932E0,1.891166308E0
5.914766417E0,5.330894816E-1,-2.601179930E-1,-1.631169099E0,1.735672318E0
5.924755417E0,6.959016931E-1,-4.507136151E-1,-1.248062453E0,1.498359709E0
5.934743416E0,7.810845155E-1,-2.165213723E-1,-1.747138097E0,1.925997418E0
5.944731417E0,3.024618477E-1,-9.186502039E-2,-1.730653626E0,1.759285175E0
5.954719417E0,2.648449552E-1,-8.949660569E-2,-1.204310662E0,1.236331939E0
5.964707416E0,1.102656233E-1,1.091166455E-1,-7.020377612E-1,7.189728564E-1
5.974696417E0,5.892204130E-1,3.312532452E-1,-3.280603731E-1,7.513541215E-1
5.984684417E0,8.398642355E-1,7.512651774E-1,-3.612959468E-1,1.183345284E0
5.994672417E0,9.974695015E-1,2.867018473E-1,2.721440345E-1,1.072942557E0
6.004660417E0,7.149536759E-1,6.623155788E-1,8.173062623E-2,9.780084763E-1
6.014648417E0,9.874777794E-3,8.206912154E-1,-5.697152710E-1,9.991031340E-1
6.024636417E0,-1.472095013E-2,7.515411660E-1,-9.830280483E-1,1.237487363E0
6.034625417E0,3.955606306E-1,9.519576985E-1,-7.771317977E-1,1.290978506E0
6.044613417E0,7.602146333E-1,9.951651138E-1,-1.198269904E-2,1.252367150E0
6.054601416E0,1.038663720E0,1.152450829E0,7.404048514E-1,1.719059214E0
6.064589417E0,7.809348267E-1,9.844992077E-1,1.365080441E0,1.855408986E0
6.074577417E0,4.337949890E-1,9.905925912E-1,1.841890180E0,2.135886516E0
6.084566417E0,4.564710760E-1,1.001647922E0,2.288539688E0,2.539503555E0
6.094554417E0,8.092201477E-1,1.219566633E0,2.476315125E0,2.876511188E0
6.104542417E0,9.375893354E-1,1.408704763E0,2.819869157E0,3.288644848E0
6.114530417E0,1.456806298E0,1.093288409E0,3.686941072E0,4.112310616E0
6.124518417E0,9.890658832E-1,1.174952962E0,4.090163017E0,4.369004382E0
6.134507417E0,3.163992709E-1,6.567832357E-1,4.524030511E0,4.582392910E0
6.144495416E0,-3.094580412E-1,1.185445206E0,4.972376297E0,5.121090767E0
6.154483417E0,-4.860714358E-1,9.579838389E-1,5.028467467E0,5.141933833E0
6.164471417E0,-6.314642072E-1,1.127948365E0,4.925906135E0,5.092697302E0
6.174459417E0,-4.000483686E-1,9.823491865E-1,4.534723315E0,4.657119728E0
6.184447417E0,-4.404923898E-1,8.127027494E-1,3.661409497E0,3.776299619E0
6.194436416E0,-4.044928372E-1,1.125634621E0,2.620816780E0,2.880858961E0
6.204424417E0,-1.989345556E-1,6.179284877E-1,1.774223569E0,1.889253780E0
6.214412417E0,-1.622128719E-1,6.183997732E-1,7.978987688E-1,1.022435201E0
6.224400416E0,-4.236108935E-1,5.326298904E-1,3.156796614E-2,6.812762478E-1
6.234388417E0,-1.988275516E-1,5.830942851E-1,-1.667555737E-1,6.382309629E-1
6.244377417E0,3.711572760E-1,6.071140623E-1,-2.087782701E-1,7.415750631E-1
6.254365417E0,1.211767616E0,6.097581732E-1,-2.645039164E-2,1.356792323E0
6.264353417E0,1.484839019E0,1.026537180E0,1.080754025E-1,1.808371031E0
6.274341417E0,1.781333783E0,5.991174102E-2,3.395607499E-1,1.814398238E0
6.284329417E0,1.081611519E0,3.590126091E-1,-1.422496737E-1,1.148480954E0
6.294318417E0,4.332856965E-1,-3.486852568E-1,-7.591136026E-1,9.410480141E-1
6.304306417E0,-3.862261355E-2,-6.522569060E-3,-1.072354646E0,1.073069773E0
6.314294416E0,-6.177700281E-2,-1.239703274E-1,-8.502167308E-1,8.614252896E-1
6.324282417E0,1.067169482E-1,-2.682644069E-2,-2.597074454E-1,2.820569484E-1
6.334270417E0,3.845181638E-1,-4.232723397E-1,5.306982628E-1,7.801630201E-1
6.344258416E0,4.535176474E-1,-5.565695608E-1,1.093387519E0,1.308030657E0
6.354247417E0,1.321757251E-1,2.422951680E-1,8.157732685E-1,8.611988135E-1
6.364235417E0,2.340669662E-1,-4.858217597E-2,9.222041416E-1,9.526846547E-1
6.374223417E0,3.063052225E-1,1.194586158E-2,8.806175745E-1,9.324445857E-1
6.384211417E0,-1.854274875E-1,-6.427844167E-2,3.603055747E-1,4.102867026E-1
6.394199417E0,-4.888330758E-1,-1.866302598E-1,2.696735859E-2,5.239426192E-1
6.404188416E0,-1.100638359E0,-2.230332702E-1,-8.280812189E-2,1.126057646E0
6.414176417E0,-1.720764815E0,-1.507154918E-1,7.797174364E-2,1.729111420E0
6.424164417E0,-1.621058094E0,-8.649903059E-2,3.715999103E-1,1.665352191E0
6.434152417E0,-1.364960573E0,5.033224761E-2,3.049932535E-1,1.399525486E0
6.444140417E0,-1.067572355E0,6.334756494E-2,1.460390349E-1,1.079375304E0
6.454128417E0,-5.726722080E-1,7.136702120E-2,9.741841346E-2,5.852666544E-1
6.464117417E0,-2.579826629E-1,1.642009252E-1,6.125777006E-2,3.118806063E-1
6.474105417E0,-2.172357559E-2,1.414529175E-1,-1.319808666E-1,1.946786859E-1
6.484093416E0,1.527976853E-1,1.906122136E-1,-2.385089497E-1,3.414186107E-1
6.494081417E0,2.684854317E-1,1.473983663E-1,-5.782194614E-2,3.116954970E-1
6.504069417E0,3.412335652E-1,9.479447544E-2,8.902648956E-2,3.651740057E-1
6.514058417E0,4.833010250E-1,2.747314274E-2,9.388377160E-2,4.931012238E-1
6.524046417E0,3.827768630E-1,1.725220978E-2,-1.218036416E-1,4.020595636E-1
6.534034417E0,4.206545413E-1,5.966264963E-2,-2.086415184E-1,4.733298617E-1
6.544022417E0,2.783181095E-1,7.025897384E-2,-1.427387202E-1,3.205801549E-1
6.554010417E0,4.644443393E-2,1.053375900E-1,-1.383594480E-1,1.799900835E-1
6.563999417E0,-8.846837282E-3,9.210066319E-2,-1.101019013E-1,1.438166449E-1
6.573987416E0,-2.705214322E-2,1.251099497E-1,2.020359188E-3,1.280171856E-1
6.583975417E0,4.336061239E-2,-7.703472733E-2,7.691076636E-2,1.171740496E-1
6.593963417E0,1.716327363E-1,-3.602843785E-1,-5.291496277E-2,4.025700223E-1
6.603951416E0,4.899966717E-3,-1.628051949E-1,-2.561450292E-1,3.035454120E-1
6.613940417E0,3.055345595E-2,-3.488595039E-1,-2.387884466E-1,4.238589262E-1
6.623928417E0,-2.010021311E-1,-2.050068891E-1,-1.712390725E-1,3.342940341E-1
6.633915875E0,-1.104416245E-1,6.568703592E-2,6.443631649E-4,1.285011841E-1
6.643903875E0,1.540647769E-1,1.534847331E-1,-2.014143598E-1,2.964140063E-1
6.653891875E0,1.882622176E-1,2.055027330E-1,-5.120406747E-1,5.829748609E-1
6.663879875E0,-1.077273470E-1,4.333663881E-1,-1.077770483E-1,4.593772957E-1
6.673868875E0,-2.339535302E-1,1.856227845E-1,2.917491639E-1,4.175016731E-1
6.683856875E0,-2.158967435E-1,2.801728463E-1,4.646960619E-1,5.839954260E-1
6.693844875E0,1.203924161E-1,3.620473140E-1,-9.807622522E-2,3.939435714E-1
6.703832875E0,2.496696764E-1,2.309965932E-1,-3.991066745E-1,5.243858418E-1
6.713820875E0,3.224224877E-1,1.506190127E-1,-4.584217072E-3,3.558979666E-1
6.723809875E0,2.817445779E-1,2.173544544E-1,4.310415351E-1,5.589452308E-1
6.733797875E0,2.357854629E-1,2.562817079E-1,6.794074287E-1,7.634589396E-1
6.743785875E0,-8.886422932E-2,3.670162779E-1,5.081473061E-1,6.330967416E-1
6.753773875E0,-4.597431779E-1,3.328445649E-1,4.600273526E-1,7.305986991E-1
6.763761875E0,-2.531236267E-1,2.630112684E-1,5.887619913E-1,6.927388975E-1
6.773749875E0,6.430358469E-2,2.620523250E-1,3.355607428E-1,4.305895774E-1
6.783738875E0,4.930413169E-1,2.334898460E-1,2.545281279E-1,6.019898805E-1
6.793726875E0,8.197065443E-1,2.126152861E-1,5.381730509E-1,1.003371472E0
6.803714875E0,5.952196562E-1,2.014418417E-1,6.280794002E-1,8.884531432E-1
6.813702875E0,3.417650771E-1,2.262667805E-1,3.661842191E-1,5.496279707E-1
6.823690875E0,3.100579655E-1,3.093001664E-1,2.753699434E-1,5.173307845E-1
6.833679875E0,8.507991135E-2,4.482107145E-1,2.484670503E-1,5.194875465E-1
6.843667875E0,2.018166482E-1,5.482542354E-1,3.195371792E-1,6.658953934E-1
6.853655875E0,3.293800896E-1,5.265084404E-1,4.261746052E-1,7.532112422E-1
6.863643875E0,3.331059355E-1,5.327801639E-1,1.327639550E-2,6.284827205E-1
6.873631875E0,2.870807469E-1,5.852975160E-1,-5.091297846E-1,8.271648415E-1
6.883620875E0,1.605633724E-1,5.555802119E-1,-5.130382097E-1,7.730835485E-1
6.893608875E0,1.655551404E-1,6.382352829E-1,-1.196904579E-1,6.701332603E-1
6.903596875E0,3.824736848E-1,7.441090626E-1,4.268588756E-1,9.392512530E-1
6.913584875E0,4.491003683E-1,5.476660055E-1,5.834894107E-1,9.176541216E-1
6.923572875E0,4.950387257E-1,5.229936790E-1,3.226899979E-1,7.891226540E-1
6.933560875E0,4.136592248E-1,3.424182111E-1,-6.218952388E-3,5.370315269E-1
6.943549875E0,-3.492015660E-2,1.382696933E-1,-5.000448194E-1,5.199834102E-1
6.953537875E0,-5.175452435E-1,4.403538108E-3,-9.579987493E-1,1.088868254E0
6.963525875E0,-5.645515949E-1,-9.714681029E-2,-1.005855871E0,1.157541377E0
6.973513875E0,-3.563801926E-1,-1.617994738E-1,-6.330406165E-1,7.442622747E-1
6.983501875E0,-2.722346663E-2,-1.175600249E-1,-1.306949177E-1,1.778837770E-1
6.993490875E0,2.800699353E-1,-1.177927440E-1,3.267068888E-1,4.461520934E-1
7.003478875E0,-8.698785782E-2,-8.000862122E-2,4.370641673E-1,4.527619167E-1
7.013466875E0,-6.914253572E-1,-8.858239353E-2,3.314109738E-1,7.718478468E-1
7.023454875E0,-9.288758147E-1,-2.386389041E-1,1.472249964E-1,9.702752214E-1
7.033442875E0,-7.675748160E-1,-1.494425529E-1,-1.717629831E-1,8.006289385E-1
7.043430875E0,9.199424386E-3,-1.381094795E-1,-3.567070520E-1,3.826209334E-1
7.053419875E0,2.509420305E-1,-1.221155906E-1,-3.373407814E-1,4.378160835E-1
7.063407875E0,1.214434531E-1,-6.713480651E-2,-2.547023749E-1,2.900498136E-1
7.073395875E0,1.115581504E-1,3.882375777E-2,-8.286776349E-2,1.442898863E-1
7.083383875E0,1.318266463E-1,2.094361550E-1,-7.199998230E-2,2.577319637E-1
7.093371875E0,3.488150650E-1,6.009078276E-1,-2.016178429E-1,7.234721290E-1
7.103360875E0,6.181810874E-1,7.696134478E-1,-2.937278616E-1,1.029916877E0
7.113348875E0,1.050537661E0,8.618117595E-1,-2.761793442E-1,1.386587147E0
7.123336875E0,1.479846374E0,9.253242159E-1,-8.874333814E-2,1.747582781E0
7.133324875E0,1.554446613E0,8.215560186E-1,3.054174690E-1,1.784527499E0
7.143312875E0,1.306922865E0,5.968159461E-1,7.460390823E-1,1.618891893E0
7.153301875E0,9.013336748E-1,3.997507453E-1,1.030122693E0,1.425957858E0
7.163289875E0,3.236141503E-1,3.194333911E-3,8.960963237E-1,9.527460015E-1
7.173277875E0,7.435436368E-2,-1.795247233E-1,2.183956973E-1,2.923258084E-1
7.183265875E0,-7.342319459E-2,-3.018812191E-1,-3.980889666E-1,5.049733273E-1
7.193253875E0,-3.572265771E-1,-3.817389822E-1,-6.303694622E-1,8.189634527E-1
7.203241875E0,-5.023220176E-1,-4.284886408E-1,-4.815576777E-1,8.172072696E-1
7.213230875E0,-1.016625272E0,-6.621772921E-1,-3.196405287E-1,1.254661619E0
7.223218875E0,-1.894946938E0,-7.545615453E-1,-3.788456337E-1,2.074538753E0
7.233206875E0,-3.235498309E0,-1.098643289E0,-5.047901273E-1,3.454023662E0
7.243194875E0,-3.704725963E0,-1.141167750E0,-4.511897247E-1,3.902669658E0
7.253182875E0,-2.575399702E0,-8.965056288E-1,2.225713402E-2,2.727068270E0
7.263171875E0,-1.427219387E0,-9.334916067E-1,7.136820526E-1,1.848703283E0
7.273159875E0,-8.380211931E-1,-6.916881895E-1,9.213001621E-1,1.424607335E0
7.283147875E0,1.686892480E-2,-3.981883693E-1,7.881437127E-1,8.831812102E-1
7.293135875E0,6.896706077E-1,-4.063288629E-2,5.378992550E-1,8.755753464E-1
7.303123875E0,1.039136468E0,2.643572974E-1,3.122379537E-1,1.116772994E0
7.313111875E0,3.667446747E-1,4.362397099E-1,2.569313335E-1,6.251563413E-1
7.323100875E0,-1.118990430E-1,6.497238922E-1,1.946630184E-1,6.874272490E-1
7.333088875E0,-1.431146961E-1,7.070815694E-1,3.436478806E-1,7.990869964E-1
7.343076875E0,-2.547924221E-1,9.129871756E-1,2.783452991E-1,9.878971944E-1
7.353064875E0,-2.860206467E-1,8.420399845E-1,1.090610969E-1,8.959539434E-1
7.363052875E0,-1.189101470E-1,7.584031659E-1,1.383848834E-1,7.800418970E-1
7.373041875E0,-4.178814992E-1,7.542972511E-1,2.476038551E-1,8.971604982E-1
7.383029875E0,-1.087076035E0,6.112193924E-1,4.060787483E-1,1.311572873E0
7.393017875E0,-1.354092354E0,4.675398552E-1,4.087308991E-1,1.489704859E0
7.403005875E0,-8.708626646E-1,4.774327594E-1,4.070749676E-1,1.073337715E0
7.412993875E0,-1.550884782E-1,2.483037668E-1,2.415017009E-1,3.795131990E-1
7.422982875E0,-3.425795943E-2,1.631127584E-1,-1.277781804E-1,2.100158164E-1
7.432970875E0,1.256360529E-1,5.027436018E-3,-5.412872779E-1,5.556992084E-1
7.442958875E0,5.875092253E-2,-2.674633384E-2,-6.287030789E-1,6.320083849E-1
7.452946875E0,3.730503121E-1,-5.098304272E-2,-5.798952004E-1,6.914074409E-1
7.462934875E0,9.795270279E-1,1.602137089E-4,-5.409714552E-1,1.118983172E0
7.472922875E0,1.335713824E0,6.231202304E-2,-9.070703050E-1,1.615794153E0
7.482911875E0,1.768893686E0,-1.383924848E-1,-9.545895302E-1,2.014789945E0
7.492899875E0,2.065648212E0,-1.983708841E-1,-8.445882741E-1,2.240442567E0
7.502887875E0,1.310021012E0,-3.092452025E-1,-6.602570665E-1,1.499242156E0
7.512875875E0,3.954881251E-1,-5.842438477E-1,-2.000917196E-2,7.057989074E-1
7.522863875E0,-4.682128698E-2,-6.414921820E-1,9.430284154E-1,1.141493340E0
7.532852875E0,-5.477276936E-2,-7.232625693E-1,1.203611993E0,1.405272440E0
7.542840875E0,4.066843736E-1,-4.330839676E-1,7.336127257E-1,9.440029312E-1
7.552828875E0,1.001084689E0,-4.442655981E-1,2.501680054E-2,1.095521938E0
7.562816875E0,1.205464172E0,-3.694387794E-1,-2.875355872E-1,1.293176552E0
7.572804875E0,8.148438536E-1,-2.960106146E-1,-1.924832495E-1,8.880555112E-1
7.582792875E0,3.235792863E-1,-4.519196033E-1,3.315298185E-3,5.558289967E-1
7.592781875E0,9.938410118E-2,-2.402819717E-1,2.519308678E-1,3.620521891E-1
7.602769875E0,1.222857445E-2,-1.369710267E-1,4.606634565E-1,4.807508922E-1
7.612757875E0,1.953540131E-1,-9.964766443E-2,5.802939805E-1,6.203498620E-1
7.622745875E0,4.914734591E-1,-3.694440418E-1,3.837059855E-2,6.160416900E-1
7.632734042E0,4.729867559E-1,-3.700983453E-1,-5.438963787E-1,8.102546064E-1
7.642723042E0,2.537280826E-1,-3.224429530E-1,-5.869400720E-1,7.161327013E-1
7.652711042E0,1.327172504E-1,-2.995095885E-1,-2.660529900E-1,4.220237619E-1
7.662699042E0,-4.496121459E-2,-3.015490973E-1,1.989317051E-1,3.640428439E-1
7.672687042E0,-1.664675253E-1,-1.072724336E-1,3.233287331E-1,3.791573310E-1
7.682675042E0,-2.859053104E-1,-8.020157933E-2,3.613075682E-1,4.676722128E-1
7.692664042E0,-4.225154907E-1,-2.379875243E-2,3.815260705E-1,5.697787842E-1
7.702652042E0,-4.744666862E-1,1.933095342E-1,4.079369203E-1,6.549043772E-1
7.712640041E0,-4.506960004E-1,2.805692875E-1,3.916745710E-1,6.597385690E-1
7.722628042E0,-2.991412870E-1,1.879143083E-1,-1.757567775E-1,3.945728598E-1
7.732616042E0,-2.811636570E-1,2.557092655E-1,-7.256605124E-1,8.191601857E-1
7.742604041E0,-2.617784926E-1,3.199765974E-1,-7.422946715E-1,8.496554487E-1
7.752593042E0,-3.549817214E-1,5.750362372E-1,-2.436195624E-1,7.183517160E-1
7.762581042E0,-7.769989197E-1,7.969661379E-1,5.858921047E-1,1.257836199E0
7.772569042E0,-9.990580438E-1,1.203528889E0,1.305078653E0,2.037112921E0
7.782557042E0,-8.107570153E-1,1.106228297E0,1.070573730E0,1.739883932E0
7.792545042E0,-6.493480624E-1,1.169030317E0,1.855918308E-1,1.350084855E0
7.802534041E0,-1.488536469E-1,9.718060720E-1,-4.153031695E-1,1.067258719E0
7.812522042E0,5.672076926E-1,6.037583452E-1,-1.029790717E0,1.321634453E0
7.822510042E0,1.222016680E-2,4.701354343E-1,-7.738099945E-1,9.055156357E-1
7.832498041E0,6.405412786E-1,1.212127805E-2,1.780009389E-2,6.409031895E-1
7.842486042E0,1.250978606E0,-2.328606856E-1,2.779637682E-1,1.302472813E0
7.852474042E0,1.573677959E0,-4.172409368E-1,1.135003030E-1,1.632003259E0
7.862463042E0,1.683144414E0,-1.074088492E0,-1.517734870E0,2.508019207E0
7.872451042E0,7.487530674E-1,-1.029153224E0,-7.818195105E-1,1.493663035E0
7.882439042E0,1.267202089E-1,-9.689549696E-1,7.925351179E-1,1.258190628E0
7.892427042E0,3.096317400E-1,-6.223226702E-1,6.398771811E-1,9.447751728E-1
7.902415042E0,2.309104747E-1,-1.949145949E-1,7.952318537E-1,8.507085563E-1
7.912404042E0,2.734166627E-1,-2.623844469E-1,3.346290986E-1,5.055481214E-1
7.922392042E0,-2.068003763E-1,5.173324049E-2,4.152236474E-1,4.667476847E-1
7.932380042E0,-4.140052338E-1,1.503781074E-1,2.954224578E-1,5.303662295E-1
7.942368042E0,-8.216627303E-1,-6.513388932E-2,2.799003843E-1,8.704690064E-1
7.952356042E0,-2.122940912E-1,-2.212726736E-1,-1.355508549E0,1.389760341E0
7.962344042E0,1.519928891E-2,4.139916390E-1,-8.663515377E-1,9.603046821E-1
7.972333041E0,1.059106537E-1,2.261878431E-1,-2.186601377E-1,3.319491869E-1
7.982321042E0,-1.637543076E-1,1.024663147E0,7.313112617E-2,1.040239492E0
7.992309042E0,5.555300720E-2,9.127719980E-1,-2.346019864E-2,9.147618477E-1
8.002297041E0,4.120589515E-1,3.256372869E-2,-1.944994791E-1,4.568183702E-1
8.012285042E0,-3.187584397E-1,1.248202202E0,2.381314023E-1,1.310084823E0
8.022274042E0,-2.504193991E-1,5.256009525E-1,1.432452718E-2,5.823842622E-1
8.032262042E0,6.472182141E-1,-3.457926393E-2,-2.989213586E-2,6.488302413E-1
8.042250042E0,2.012902161E-1,1.974078476E-2,4.075521004E-1,4.549793009E-1
8.052238042E0,1.543953273E-1,3.298542988E-1,4.569599946E-2,3.670557177E-1
8.062226042E0,-1.624985084E-2,3.028208667E-1,8.560090740E-2,3.151064111E-1
8.072215042E0,6.220118907E-1,-1.132371783E-1,2.382833934E-1,6.756481527E-1
8.082203042E0,6.653245559E-1,2.868567985E-1,4.085285854E-1,8.317687135E-1
8.092191041E0,-1.661205661E-1,2.901797712E-1,3.434619391E-1,4.793395933E-1
8.102179042E0,-2.984925384E-1,-3.285258114E-2,-3.957395554E-3,3.003210758E-1
8.112167042E0,-3.113520274E-1,3.431847811E-2,4.117259343E-2,3.159319949E-1
8.122155041E0,1.576904891E-1,-1.709006649E-1,2.588024426E-1,3.479253252E-1
8.132144042E0,8.084357437E-1,-6.180156112E-1,7.621261338E-2,1.020450886E0
8.142132042E0,6.732309417E-1,-4.392247134E-1,-1.746528232E-1,8.225945893E-1
8.152120042E0,3.760749306E-1,-6.906052852E-1,-2.136525822E-1,8.148714249E-1
8.162108042E0,1.698201726E-1,-3.880136293E-1,-1.086646671E-2,4.236880310E-1
8.172096041E0,4.407594614E-2,-5.198584020E-2,1.043412244E-1,1.246286794E-1
8.182085042E0,-6.903434761E-2,-1.075367278E-1,-1.292585035E-2,1.284405177E-1
8.192073042E0,3.950824745E-2,-7.231251597E-3,-3.215959473E-3,4.029311370E-2
8.202061042E0,1.514705866E-1,5.019074500E-2,8.143767159E-2,1.791495014E-1
8.212049042E0,4.255911262E-1,-6.501981014E-1,-1.093252083E-2,7.771775201E-1
8.222037042E0,4.280042721E-1,-1.116962031E0,-2.178904613E-2,1.196355548E0
8.232026041E0,5.934894651E-1,-9.363988423E-1,-4.790210824E-2,1.109669838E0
8.242014042E0,7.426208000E-1,-3.945063776E-1,-2.527517438E-2,8.412845945E-1
8.252002042E0,2.321701294E-1,-2.447264403E-1,4.157485446E-2,3.398859634E-1
8.261990041E0,-2.528288539E-1,-1.674145550E-1,1.080220284E-1,3.218987748E-1
8.271978042E0,-7.475880097E-1,4.004535806E-1,7.194883743E-2,8.511330905E-1
8.281966042E0,-6.850274800E-1,6.225594825E-1,1.117361615E-1,9.323775669E-1
8.291955042E0,-3.897679402E-1,6.339843571E-2,8.770238757E-3,3.949877542E-1
8.301943042E0,-7.470190756E-2,-3.211992502E-1,-5.828621507E-2,3.348829888E-1
8.311931042E0,2.454085180E-1,-6.359683174E-1,7.478122870E-2,6.857647363E-1
8.321919042E0,5.063530149E-1,-8.867349315E-1,2.031305176E-1,1.041131222E0
8.331907042E0,2.207904976E-1,-1.066311695E0,1.344935614E-1,1.097204444E0
8.341896042E0,-4.387871955E-1,2.958299357E-1,-1.590097672E-1,5.525700497E-1
8.351884041E0,3.078623360E-1,1.230036072E0,-1.570778471E-1,1.277670304E0
8.361872042E0,7.132569601E-1,-9.655121291E-1,-2.532616575E-1,1.226821352E0
8.371860042E0,-1.789562277E-2,-1.319379773E0,-3.289152725E-1,1.359878118E0
8.381848041E0,-2.213402820E-1,-9.810551977E-1,-2.280694405E-1,1.031249965E0
8.391836042E0,-2.542530164E-1,-7.244659263E-1,-7.631785870E-2,7.715697572E-1
8.401825042E0,-4.463025487E-1,-3.794082820E-1,1.088769462E-1,5.958110429E-1
8.411813042E0,-1.576826685E-1,-1.115309608E-1,3.163244631E-1,3.706266924E-1
8.421801042E0,1.434855558E-2,-7.068815947E-2,1.067690249E-1,1.288499966E-1
8.431789041E0,-1.409235983E-1,9.162294567E-2,7.582786202E-2,1.844019777E-1
8.441777042E0,-2.216538390E-1,3.080722511E-2,1.861991007E-2,2.245578110E-1
8.451766042E0,-2.020308025E-2,3.370335102E-2,-2.399814248E-2,4.604336178E-2
8.461754042E0,6.585207358E-3,2.722931385E-2,-3.532825571E-2,4.508753863E-2
8.471742042E0,-2.366083123E-2,-2.081491828E-2,-3.379920881E-2,4.621127864E-2
8.481730042E0,6.108849317E-2,4.717592061E-2,-3.485295016E-2,8.468824958E-2
8.491718042E0,1.619306707E-1,1.296859807E-1,8.639809303E-3,2.076406559E-1
8.501706042E0,1.595846216E-1,8.780237496E-2,6.906259697E-2,1.947977176E-1
8.511695042E0,1.453872896E-1,4.971419692E-2,6.020461343E-2,1.650259399E-1
8.521683041E0,9.149525709E-2,3.950788200E-2,3.225974657E-2,1.047518308E-1
8.531671042E0,4.022796661E-2,1.687857270E-2,2.792103946E-2,5.179536619E-2
8.541659042E0,2.974047370E-2,4.414355457E-2,5.740796328E-3,5.353602459E-2
8.551647041E0,-6.465777978E-3,7.543200552E-2,-3.152296085E-2,8.200908976E-2
8.561636042E0,-1.196866572E-2,6.727572441E-2,-4.199470282E-2,8.020490707E-2
8.571624042E0,4.953059435E-2,1.866729444E-1,-2.365235277E-3,1.931467377E-1
8.581612042E0,1.092226262E-1,2.171211505E-1,-3.659947693E-2,2.457858779E-1
8.591600042E0,5.445660310E-1,3.237136699E0,3.100270484E-1,3.297229586E0
8.601588042E0,7.636287495E-1,4.593743940E0,-3.377924788E-1,4.669016600E0
8.611577041E0,3.646080291E-1,2.999117600E0,-5.896378311E-1,3.078200475E0
8.621565042E0,8.646266822E-2,1.234996850E0,7.859703027E-2,1.240512195E0
8.631553042E0,-2.259127681E-1,3.952723628E-1,2.781677630E-1,5.335298717E-1
8.641540750E0,-3.264385747E-1,4.988850242E-1,2.448713051E-1,6.445233638E-1
8.651528750E0,1.559676801E-1,6.975225413E-1,1.183897448E-1,7.244858484E-1
8.661516750E0,6.520098612E-2,1.694026083E-1,2.291412717E-1,2.923253918E-1
8.671505750E0,-4.999658089E-2,-1.598044038E-1,1.726266899E-1,2.404934087E-1
8.681493750E0,1.470684737E-1,-4.607225865E-1,1.157351089E-1,4.972816638E-1
8.691481750E0,1.401115114E-1,-2.270625865E-1,2.647688683E-1,3.758872270E-1
8.701469750E0,2.401193826E-1,3.919341874E-1,2.655378503E-1,5.308296102E-1
8.711457750E0,3.280659645E-1,9.881683356E-1,8.438168071E-2,1.044616774E0
8.721446750E0,4.701776439E-1,1.037935742E0,2.386458477E-1,1.164186180E0
8.731434750E0,4.995393642E-1,9.070089823E-1,-1.767094351E-2,1.035624031E0
8.741422750E0,3.400229723E-1,1.446153840E0,2.924134076E-2,1.485877387E0
8.751410750E0,-1.104298296E-2,1.570290813E0,1.881049275E-2,1.570442301E0
8.761398750E0,-1.281824971E-1,-3.369668519E-1,2.887407714E-1,4.618967904E-1
8.771386750E0,-1.423083213E0,-4.464253841E0,1.271466080E-1,4.687312071E0
8.781375750E0,-1.281595943E0,-5.920334499E0,-2.499363095E-1,6.062616342E0
8.791363750E0,4.467596183E-2,-5.476223853E0,-3.666128200E-1,5.488663643E0
8.801351750E0,6.773720860E-1,-3.386779811E0,-2.755277451E-1,3.464826976E0
8.811339750E0,3.919897725E-1,-3.701135480E-1,2.164690398E-2,5.395448162E-1
8.821327750E0,1.136091343E-1,-1.040921330E-1,1.379580367E-1,2.068202781E-1
8.831316750E0,8.492050163E-2,7.344395220E-2,2.189068902E-1,2.460197802E-1
8.841304750E0,5.589140567E-2,2.315672815E-1,1.474346191E-1,2.801503560E-1
8.851292750E0,5.515544222E-2,2.298604792E-1,1.091604996E-1,2.603727662E-1
8.861280750E0,1.129920612E-1,1.109023851E-1,1.306888513E-1,2.052952039E-1
8.871268750E0,1.364783987E-1,5.031236708E-2,9.730870508E-2,1.750047762E-1
8.881256750E0,2.608928267E-2,1.066690010E-1,6.097834624E-2,1.256076636E-1
8.891245750E0,2.173998663E-2,1.939632529E-1,5.620636046E-5,1.951778001E-1
8.901233750E0,1.387285718E-2,3.493880922E-1,5.731908560E-2,3.543303158E-1
8.911221750E0,7.425688877E-2,5.015104240E-1,6.208865941E-2,5.107658882E-1
8.921209750E0,2.536223759E-1,8.161438358E-1,5.710339643E-2,8.565488125E-1
8.931197750E0,1.698628572E-1,8.924692959E-1,3.197264828E-2,9.090528503E-1
8.941186750E0,9.958106099E-2,2.555999225E-1,6.911408901E-3,2.744002108E-1
8.951174750E0,1.794752778E-1,-7.867837965E-1,-3.312447667E-3,8.070012950E-1
8.961162750E0,7.744019520E-2,-1.054438924E0,-5.841368437E-4,1.057278946E0
8.971150750E0,5.978976262E-2,-3.985795480E-1,2.043433763E-2,4.035567295E-1
8.981138750E0,2.553123903E-3,2.833478844E-1,4.458611570E-2,2.868457142E-1
8.991126750E0,-4.277871394E-2,3.563252288E-1,6.504493855E-2,3.647307652E-1
9.001115750E0,1.028742494E-1,5.898454803E-1,-4.221689701E-4,5.987495136E-1
9.011103750E0,1.594010373E-1,8.349262619E-1,-8.583537161E-2,8.543291313E-1
9.021091750E0,3.031556198E-1,1.138914818E-1,6.819717251E-2,3.309463004E-1
9.031079750E0,2.998889997E-1,-2.606367141E-1,3.975872755E-2,3.993064804E-1
9.041067750E0,1.224678396E-1,-4.358532089E-1,-9.289654233E-2,4.621646449E-1
9.051056750E0,-9.878107052E-2,-3.927995753E-1,3.708655000E-2,4.067242536E-1
9.061044750E0,-2.162768491E-1,1.027355790E-3,-2.840168059E-2,2.181361648E-1
9.071032750E0,-1.734415908E-1,4.349644321E-1,-2.139028430E-2,4.687574926E-1
9.081020750E0,-1.105871471E-1,3.689663243E-1,1.047990614E-1,3.991848054E-1
9.091008750E0,-9.951923582E-2,-3.564228773E-2,1.533775829E-1,1.862770354E-1
9.100996750E0,-1.656121507E-2,-7.555415386E-1,2.766025364E-2,7.562290526E-1
9.110985750E0,1.747875467E-1,-7.313896143E-1,8.237118870E-3,7.520301221E-1
9.120973750E0,1.895110367E-1,4.248002172E-3,1.087587228E-1,2.185427609E-1
9.130961750E0,9.662949616E-2,5.454826552E-1,-1.686556265E-2,5.542319314E-1
9.140949750E0,-4.792820144E-2,1.010989434E0,-2.606571794E-2,1.012460453E0
9.150937750E0,-4.129680108E-2,1.100812021E0,1.148650432E-1,1.107558807E0
9.160926750E0,-9.063542403E-2,1.850848407E-1,1.816310365E-1,2.747016778E-1
9.170914750E0,-5.745035559E-3,2.694455445E-2,1.757784122E-1,1.779243228E-1
9.180902750E0,1.280754382E-1,1.810730660E-1,7.024508670E-2,2.326481148E-1
9.190890750E0,9.599454336E-2,-1.006229800E-1,6.140161157E-3,1.392035849E-1
9.200878750E0,-5.093772680E-2,-1.014199555E-1,-8.530502915E-2,1.419774890E-1
9.210867750E0,7.393647049E-2,-1.867501277E-1,-9.836186171E-2,2.236454062E-1
9.220855750E0,3.978595365E-2,-6.350163907E-1,-1.359395778E-1,6.506214778E-1
9.230843750E0,1.074781825E-1,-2.717598724E-1,3.097504020E-2,2.938782760E-1
9.240831750E0,1.805061053E-1,-4.103850764E-1,2.068388218E-1,4.937414943E-1
9.250819750E0,1.389943460E-1,-8.045201558E-1,1.663076770E-1,8.332048684E-1
9.260807750E0,2.467567032E-1,-2.672078151E-1,1.528461441E-1,3.945260838E-1
9.270796750E0,2.419760562E-1,4.166667402E-2,1.761877173E-1,3.022095883E-1
9.280784750E0,1.162120224E-1,2.748624051E-1,1.418113518E-1,3.304013247E-1
9.290772750E0,1.755542811E-1,3.014976418E-1,1.310829536E-1,3.726967593E-1
9.300760750E0,6.942026384E-2,2.177163970E-1,1.043447328E-1,2.512119142E-1
9.310748750E0,-3.125406202E-2,4.307930285E-1,8.777664721E-2,4.407541146E-1
9.320736750E0,-9.406697217E-2,8.603312445E-1,1.092102009E-1,8.723217947E-1
9.330725750E0,4.321092367E-4,4.835372525E-1,1.948343419E-2,4.839298147E-1
9.340713750E0,-1.417230588E-1,-2.312573791E-3,1.733056247E-2,1.427974853E-1
9.350701750E0,-1.486835112E-1,2.075165141E-1,2.993482053E-2,2.570330399E-1
9.360689750E0,6.322338469E-3,-3.835995662E-1,1.059055008E-2,3.837978099E-1
9.370677750E0,3.781723268E-2,-2.268392229E-1,-3.628197312E-3,2.299985651E-1
9.380666750E0,2.261253510E-2,-4.419062465E-1,4.639349006E-2,4.449098936E-1
9.390654750E0,8.488870740E-2,-3.522631681E-1,-5.969890237E-2,3.672320672E-1
9.400642750E0,1.789847329E-1,-2.606215113E-1,-6.314123131E-2,3.224064545E-1
9.410630750E0,1.394768144E-1,-1.464090174E-1,-5.455576457E-2,2.094414324E-1
9.420618750E0,5.337170340E-2,1.838037157E-1,3.231281005E-2,1.941042563E-1
9.430606750E0,1.364104249E-2,9.773363686E-1,1.434186783E-1,9.878974505E-1
9.440595750E0,1.094178502E-2,1.018806576E0,1.114905419E-1,1.024947171E0
9.450583750E0,9.017755050E-2,-1.180827659E-1,5.970124125E-2,1.601242281E-1
9.460571750E0,1.417010587E-1,2.942424166E-1,-1.888410920E-1,3.772515710E-1
9.470559750E0,4.049745016E-1,8.729928052E-1,-3.025635892E-1,1.008794087E0
9.480547750E0,5.645877014E-1,-1.177565498E0,-3.059460573E-1,1.341276543E0
9.490536750E0,2.443779463E-1,-1.127180625E0,-2.461882442E-1,1.179349564E0
9.500524750E0,3.238954744E-1,-7.226690769E-1,-4.989180610E-2,7.935036644E-1
9.510512750E0,1.393094744E-1,-9.672926062E-1,1.314309360E-1,9.860710962E-1
9.520500750E0,2.241493575E-2,-8.419312263E-1,2.964227702E-1,8.928701349E-1
9.530488750E0,-7.242185891E-2,-4.921525401E-1,3.219512022E-1,5.925467281E-1
9.540476750E0,-1.030888970E-1,-4.135840881E-1,2.187104237E-1,4.790755348E-1
9.550465750E0,-2.164259896E-1,-2.951931739E-1,1.303361180E-1,3.885443637E-1
9.560453750E0,-3.670363046E-1,-1.627987629E-1,7.803226233E-2,4.090331528E-1
9.570441750E0,-3.554060465E-1,5.492640495E-2,3.797708094E-2,3.616249805E-1
9.580429750E0,-3.894151338E-1,1.591278809E-1,2.049675666E-2,4.211721097E-1
9.590417750E0,-3.916530825E-1,1.074344015E-1,3.606387198E-2,4.077191319E-1
9.600406750E0,-2.132376491E-1,-6.046605706E-2,1.892677926E-2,2.224514824E-1
9.610394750E0,-1.066302632E-1,-2.332378310E-1,1.197509766E-2,2.567358600E-1
9.620382750E0,-1.814646833E-2,-7.411287367E-2,7.579219401E-2,1.075475199E-1
9.630370750E0,1.827619977E-1,2.052150500E-1,6.871698998E-2,2.832616975E-1
9.640358750E0,2.666039804E-1,4.279284775E-1,-2.638322175E-2,5.048727945E-1
9.650346750E0,2.516741750E-1,5.225317490E-1,-8.374740399E-2,5.859973949E-1
9.660335750E0,2.032766249E-1,2.691946989E-1,-1.523345858E-1,3.701256519E-1
9.670323750E0,1.104772925E-1,1.917921817E-1,-1.527712266E-1,2.689396230E-1
9.680311750E0,2.355542420E-1,6.392585456E-2,-2.005805469E-1,3.159190903E-1
9.690299750E0,3.189074340E-1,1.612194300E-2,-1.153176177E-1,3.394996634E-1
9.700287750E0,5.489940178E-1,3.842848599E-2,-3.610187888E-2,5.515201953E-1
9.710276750E0,6.484396975E-1,1.558195263E-1,3.573701262E-2,6.678554485E-1
9.720264750E0,6.560733837E-1,1.703890336E-1,-4.767044887E-2,6.795124570E-1
9.730252750E0,4.272436955E-1,1.242299438E-1,-1.511190227E-1,4.699012804E-1
9.740240750E0,1.920142297E-1,3.993238986E-2,-1.960751210E-1,2.773256448E-1
9.750228750E0,2.649767368E-1,1.455863142E-1,-1.705124098E-1,3.471059317E-1
9.760216750E0,1.025545346E-1,1.860969937E-1,-3.521843769E-2,2.153830587E-1
9.770205750E0,-2.319569253E-1,2.014798486E-1,1.286884457E-1,3.331048794E-1
9.780193750E0,-4.330362397E-1,2.047683227E-1,1.603910257E-1,5.051492175E-1
9.790181750E0,-6.120681889E-1,1.546617776E-1,1.211796706E-1,6.428314288E-1
9.800169750E0,-8.792572197E-1,2.109739727E-1,5.509480476E-2,9.058911155E-1
9.810157750E0,-7.914454161E-1,9.220532835E-2,1.094838506E-1,8.042850134E-1
9.820146750E0,-6.993318160E-1,6.145897275E-1,1.042394098E-1,9.368304951E-1
9.830134750E0,-6.876655975E-1,9.814750278E-1,3.732511640E-2,1.198987226E0
9.840122750E0,-4.238569882E-1,8.857257020E-1,-4.882892847E-2,9.831322546E-1
9.850110750E0,1.851265021E-1,3.296397060E-1,-2.268496748E-1,4.409024070E-1
9.860098750E0,6.084926530E-1,-1.056194258E-1,-2.634006929E-1,6.714154429E-1
9.870086750E0,6.881148098E-1,-3.133902937E-1,-2.764021231E-1,8.050550300E-1
9.880075750E0,4.937716341E-1,-5.708572322E-1,-1.863963711E-1,7.774522579E-1
9.890063750E0,-6.516217522E-2,-2.918316096E-1,-5.372597158E-2,3.038063157E-1
9.900051750E0,-1.481305474E-1,-4.371676630E-1,-4.601977989E-2,4.638707199E-1
9.910039750E0,-5.298966095E-3,-5.584646434E-1,2.212060153E-2,5.589276858E-1
9.920027750E0,9.755564030E-2,-2.693321085E-1,1.465382409E-1,3.217613148E-1
9.930016750E0,1.872174298E-1,7.522209048E-2,1.452674948E-1,2.486189332E-1
9.940004750E0,2.776006196E-1,5.071477246E-1,8.266574219E-2,5.840329987E-1
9.949992750E0,3.444713878E-1,8.292363364E-1,-8.898292780E-3,8.979825266E-1
9.959980750E0,3.526698054E-1,6.070532513E-1,-1.259863012E-1,7.132756757E-1
9.969968750E0,1.227230432E-1,-5.277252460E-1,-5.004047155E-2,5.441129748E-1
9.979956750E0,2.165896751E-1,-5.044422179E-1,-1.546840701E-1,5.703509447E-1
9.989945750E0,1.332113766E-1,-2.596497041E-1,-1.741827802E-1,3.398571474E-1
9.999933750E0,8.882497989E-2,-5.444178772E-1,-5.930480003E-2,5.547952427E-1
1.000992175E1,2.727532413E-2,-5.731826699E-1,1.630051696E-1,5.965341580E-1
1.001990975E1,1.645209141E-2,-8.158555681E-1,2.188975346E-1,8.448710611E-1
1.002989775E1,-4.724937625E-2,-9.014570510E-1,2.792109793E-1,9.448894588E-1
1.003988675E1,4.032722309E-2,-6.419079190E-1,2.887436950E-1,7.050141721E-1
1.004987475E1,1.875779472E-2,-4.956094140E-1,3.093410969E-1,5.845275531E-1
1.005986275E1,-1.354120128E-2,-3.939994240E-1,2.720406850E-1,4.789833447E-1
1.006985075E1,9.121619873E-3,-5.408686173E-1,2.377331704E-1,5.908799586E-1
1.007983875E1,1.444091235E-1,-9.016640425E-1,1.452033216E-1,9.246275169E-1
1.008982675E1,2.456530047E-1,-1.258548850E0,4.952299297E-2,1.283254898E0
1.009981575E1,3.691072057E-1,-9.228216076E-1,1.407132447E-2,9.940009310E-1
1.010980375E1,1.351430409E-1,-8.146539652E-1,-7.044213787E-2,8.287863533E-1
1.011979175E1,-8.352820650E-3,-5.264569849E-1,-2.022201061E-2,5.269114311E-1
1.012977975E1,-9.567404285E-2,-5.000796103E-1,3.863372326E-2,5.106130666E-1
1.013976775E1,-1.716680389E-1,-5.421240145E-1,8.123595178E-2,5.744281004E-1
1.014975675E1,-3.124593439E-1,-4.520435643E-1,1.154842633E-1,5.615254586E-1
1.015974475E1,-3.413450278E-1,-8.019807100E-2,1.274776335E-1,3.730934275E-1
1.016973275E1,-2.725619642E-1,2.091227442E-1,6.754001856E-2,3.501199803E-1
1.017972075E1,-2.372383498E-1,2.628668422E-1,-5.633799590E-2,3.585456471E-1
1.018970875E1,-6.581238560E-2,4.530393451E-1,-1.038295931E-1,4.694214554E-1
1.019969675E1,7.172669806E-2,7.146806109E-1,-1.012468779E-1,7.253716462E-1
1.020968575E1,1.623693215E-1,7.167657280E-1,-2.158727700E-1,7.659751681E-1
1.021967375E1,1.930927487E-1,6.097733760E-1,-2.414888370E-1,6.836850430E-1
1.022966175E1,3.892436642E-2,4.524195403E-1,-2.164008466E-1,5.030187602E-1
1.023964975E1,9.003264919E-2,6.236125660E-1,-6.962922871E-2,6.339138269E-1
1.024963775E1,2.813766053E-1,8.025145608E-1,2.952783971E-1,9.002176104E-1
1.025962675E1,5.725719647E-1,8.165601575E-1,3.192272767E-2,9.978117088E-1
1.026961475E1,2.531182180E-1,7.579634553E-1,-8.987679166E-1,1.202647579E0
1.027960275E1,-7.690367661E-3,1.105845889E0,-4.881871046E-1,1.208834530E0
1.028959075E1,1.905873264E-1,4.975185299E-1,5.829041044E-1,7.896995704E-1
1.029957875E1,3.500654921E-2,-1.187663054E-1,3.276743107E-1,3.502875214E-1
1.030956675E1,7.066773076E-2,1.755158722E-2,1.132884876E-1,1.346709613E-1
1.031955575E1,2.844345164E-2,3.491430938E-2,-5.291730165E-4,4.503686229E-2
1.032954375E1,-6.201118380E-2,1.983434021E-2,-9.428708330E-2,1.145811592E-1
1.033953175E1,-9.377267450E-2,-5.109413981E-2,-9.404997870E-2,1.423001198E-1
1.034951975E1,-8.173694853E-2,1.637688160E-2,-6.220399573E-2,1.040118651E-1
1.035950775E1,-1.144744492E-1,-6.793119729E-2,-5.388677001E-2,1.436065147E-1
1.036949575E1,-4.999405928E-3,-6.102446616E-2,-9.681629643E-2,1.145529344E-1
1.037948475E1,-2.326580430E-1,-1.654358572E-1,-1.324521522E-1,3.147099624E-1
1.038947275E1,-3.160317368E-1,-2.730211169E-1,-7.604552463E-2,4.244991293E-1
1.039946075E1,-2.148309788E-1,-1.320652127E-1,-7.493396893E-2,2.630754067E-1
1.040944875E1,-1.072324533E-1,-2.763803422E-2,-8.725799918E-2,1.409844615E-1
1.041943675E1,7.429413736E-2,-2.880689263E-2,-2.071434617E-2,8.233188961E-2
1.042942575E1,6.243313350E-2,7.472917020E-2,-2.544883668E-2,1.006478431E-1
1.043941375E1,8.265032016E-2,2.316912425E-1,-4.732517079E-2,2.505026528E-1
1.044940175E1,9.983360589E-2,2.375255942E-1,-1.735320581E-1,3.106421285E-1
1.045938975E1,9.892564293E-2,2.967602277E-1,-2.314403969E-1,3.891241099E-1
1.046937775E1,1.535796407E-1,2.617289740E-1,-2.249435556E-1,3.777411350E-1
1.047936575E1,1.575315911E-1,1.402659327E-1,-2.039690083E-1,2.934179449E-1
1.048935475E1,1.881253562E-1,1.894784385E-1,-6.831609026E-2,2.756089921E-1
1.049934275E1,2.319770434E-1,1.470545501E-1,-8.143958107E-2,2.864800075E-1
1.050933075E1,2.584854869E-1,8.505769193E-2,-1.080045050E-1,2.927704408E-1
1.051931875E1,3.022489725E-1,1.443677545E-1,-1.517352462E-3,3.349608817E-1
1.052930675E1,3.484696408E-1,1.315793091E-1,1.944550037E-2,3.729910624E-1
1.053929575E1,3.196837616E-1,-1.973610699E-2,-4.603074342E-3,3.203254745E-1
1.054928375E1,2.562910634E-1,-1.740184003E-1,5.639113247E-2,3.148769167E-1
1.055927175E1,2.105575778E-1,-2.654840559E-1,8.710012436E-2,3.498609855E-1
1.056925975E1,2.045633778E-1,-2.684778303E-1,1.223879246E-1,3.590338772E-1
1.057924775E1,1.580054348E-1,-1.978879040E-1,1.088574676E-1,2.756361519E-1
1.058923675E1,7.932913821E-2,-1.235575140E-1,4.453765690E-2,1.534378516E-1
1.059922475E1,5.474419110E-3,-1.177711093E-1,-2.188086569E-2,1.199115330E-1
1.060921275E1,-4.981312450E-2,1.119274020E-2,-5.226343676E-2,7.306224489E-2
1.061920075E1,-3.256880846E-2,2.228075677E-1,-5.435396254E-2,2.316425970E-1
1.062918875E1,9.863269743E-2,5.660017043E-1,-3.120995209E-2,5.753784836E-1
1.063917642E1,1.806125978E-1,5.067430973E-1,-1.957242881E-1,5.724661336E-1
1.064916542E1,5.898097392E-2,5.093380916E-1,-1.436375834E-1,5.324807999E-1
1.065915342E1,1.741309958E-2,5.106297415E-1,1.016699240E-2,5.110277064E-1
1.066914142E1,-1.020328899E-1,2.723685676E-1,1.180381809E-1,3.138922735E-1
1.067912942E1,-2.521617963E-1,1.753346086E-1,2.022908574E-1,3.677626782E-1
1.068911742E1,-3.891919529E-1,1.808649051E-1,2.033844329E-1,4.749186432E-1
1.069910542E1,-4.512604760E-1,2.109155005E-1,9.633010045E-2,5.073468772E-1
1.070909442E1,-4.010361095E-1,3.953536391E-2,-1.760596633E-3,4.029840019E-1
1.071908242E1,-2.648979639E-1,-3.705246073E-1,-5.021588802E-2,4.582368943E-1
1.072907042E1,-9.730589110E-3,-5.421859950E-1,5.828226820E-2,5.453963332E-1
1.073905842E1,3.644494233E-1,-2.404293215E-1,1.370097645E-1,4.576038859E-1
1.074904642E1,6.523811594E-1,2.243845618E-1,1.185353404E-1,7.000001683E-1
1.075903542E1,7.348439301E-1,6.849720776E-1,9.355486572E-2,1.008927580E0
1.076902342E1,6.466450408E-1,7.861990750E-1,8.199097350E-2,1.021264566E0
1.077901142E1,4.435691216E-1,4.302001208E-1,1.816478473E-1,6.440664950E-1
1.078899942E1,3.046007957E-1,3.251806194E-1,1.949635653E-1,4.863485085E-1
1.079898742E1,1.168193836E-1,1.951022905E-1,9.747893214E-2,2.474142566E-1
1.080897542E1,5.141206389E-2,1.576105285E-1,7.157401264E-2,1.805744120E-1
1.081896442E1,7.959169647E-2,-3.746135652E-2,6.825849518E-2,1.113436731E-1
1.082895242E1,1.701909043E-1,-3.204584080E-1,5.731967032E-2,3.673473557E-1
1.083894042E1,2.199176727E-1,-7.326040810E-1,1.004573576E-1,7.714688607E-1
1.084892842E1,2.241996070E-1,-9.571839398E-1,1.696704108E-1,9.976244818E-1
1.085891642E1,1.808257470E-1,-1.045765749E0,2.049168420E-1,1.080886148E0
1.086890542E1,8.962047530E-2,-1.143604285E0,1.768238944E-1,1.160658985E0
1.087889342E1,-1.179343197E-2,-8.223161566E-1,2.071113020E-1,8.480790281E-1
1.088888142E1,-1.893502017E-1,-8.480304569E-1,1.821758509E-1,8.878047056E-1
1.089886942E1,-3.743478823E-1,-1.072698024E0,1.710105926E-1,1.148939516E0
1.090885742E1,-5.398962253E-1,-1.497812237E0,1.577501307E-1,1.599942041E0
1.091884542E1,-6.590995371E-1,-2.052197862E0,1.748276550E-1,2.162520052E0
1.092883442E1,-6.749824751E-1,-2.140414220E0,2.164130527E-1,2.254730357E0
1.093882242E1,-6.063830142E-1,-1.801102635E0,1.814810555E-1,1.909085235E0
1.094881042E1,-4.930884600E-1,-8.967032647E-1,1.101701675E-1,1.029247512E0
1.095879842E1,-1.929264502E-1,9.370929068E-1,3.153701609E-1,1.007383775E0
1.096878642E1,5.401935562E-1,3.783173670E0,7.014781827E-1,3.885393640E0
1.097877542E1,5.576870368E-1,4.204415272E0,-5.306074847E-1,4.274303091E0
1.098876342E1,4.976174209E-1,1.851699761E0,-1.560649340E0,2.472254328E0
1.099875142E1,3.412549075E-1,5.771628696E-1,-3.098435189E-1,7.386304192E-1
1.100873942E1,2.279222734E-2,6.229974389E-2,6.828904688E-2,9.520576474E-2
1.101872742E1,7.924181370E-2,-4.114217877E-2,1.503434627E-1,1.748573724E-1
1.102871542E1,1.998740936E-2,-8.768601537E-2,1.644947478E-1,1.874749473E-1
1.103870442E1,-1.069777340E-2,-1.147901988E-1,8.185517192E-3,1.155778300E-1
1.104869242E1,5.121430010E-4,-6.432171106E-2,-3.819576681E-2,7.480950078E-2
1.105868042E1,1.916066788E-2,5.444576383E-2,-2.338827789E-2,6.227747534E-2
1.106866842E1,6.519638143E-2,1.228271967E-1,-1.161739424E-2,1.395422956E-1
1.107865642E1,8.744958686E-2,1.494361210E-1,-5.344720557E-2,1.812048241E-1
1.108864442E1,7.937810864E-2,1.266319799E-1,-7.251190603E-2,1.661159805E-1
1.109863342E1,6.758467667E-2,9.732982814E-2,-4.411943480E-2,1.264409289E-1
1.110862142E1,2.423219556E-2,8.150609314E-2,-1.967588067E-2,8.727876489E-2
1.111860942E1,-5.292038972E-2,7.884736419E-2,-9.836478531E-4,9.496547820E-2
1.112859742E1,-1.963019564E-1,5.580933452E-2,1.697446704E-3,2.040882683E-1
1.113858542E1,-2.733547736E-1,8.093715906E-3,-7.040047646E-3,2.735651709E-1
1.114857442E1,-2.957377507E-1,-6.781366825E-2,-1.495556965E-2,3.037814672E-1
1.115856242E1,-2.863993818E-1,-1.096931809E-1,-2.981144428E-2,3.081329616E-1
1.116855042E1,-2.767015006E-1,-1.840241557E-1,-4.248923108E-2,3.350133506E-1
1.117853842E1,-2.404712936E-1,-2.253376579E-1,-6.070652381E-2,3.350951882E-1
1.118852642E1,-1.783800760E-1,-2.096396381E-1,-6.649409786E-2,2.831778494E-1
1.119851442E1,-1.748626286E-1,-1.393759865E-1,-7.154872343E-2,2.347803746E-1
1.120850342E1,-1.137427615E-1,-1.113362485E-1,-6.526442841E-2,1.720250611E-1
1.121849142E1,-4.629306413E-2,-1.053639024E-1,-6.285391375E-2,1.311305235E-1
1.122847942E1,8.590107970E-4,5.022231996E-2,-1.471451819E-2,5.234058050E-2
1.123846742E1,6.104701448E-2,7.745397270E-2,-2.764344290E-2,1.024207782E-1
1.124845542E1,5.559179982E-2,4.581410408E-2,-3.893558577E-2,8.188626368E-2
1.125844442E1,-5.894157831E-3,2.424086040E-1,2.910317105E-1,3.788088290E-1
1.126843242E1,-2.061576942E-1,1.724870145E-1,-1.726190154E-1,3.194527971E-1
1.127842042E1,-1.612555000E-1,-7.626464903E-2,-8.607639384E-1,8.790530079E-1
1.128840842E1,-2.566291787E-2,-4.859387040E-2,-5.945039570E-2,8.095862612E-2
1.129839642E1,-8.862564465E-2,-4.293435037E-2,4.598710857E-1,4.702970113E-1
1.130838442E1,-9.017769668E-2,7.340185225E-2,2.945553888E-1,3.166744795E-1
1.131837342E1,-5.038684599E-2,1.631811708E-1,1.723876119E-2,1.716511102E-1
1.132836142E1,-2.885071021E-3,1.203304356E-1,-4.322378755E-2,1.278907080E-1
1.133834942E1,9.350085206E-2,-1.354858339E-2,-7.485020757E-3,9.477340863E-2
1.134833742E1,1.867992260E-1,-3.155391455E-2,6.081440493E-2,1.989673144E-1
1.135832542E1,2.599793957E-1,-3.087154448E-2,9.775360510E-2,2.794603832E-1
1.136831442E1,2.776470136E-1,2.428348660E-2,6.214245379E-2,2.855507598E-1
1.137830242E1,2.519153361E-1,8.065766215E-2,3.105397761E-2,2.663293911E-1
1.138829042E1,2.561136735E-1,1.161227793E-1,2.777252018E-2,2.825774699E-1
1.139827842E1,2.392280842E-1,4.465167761E-2,7.892293945E-2,2.558372118E-1
1.140826642E1,2.069378955E-1,-2.575873911E-2,9.668488026E-2,2.298581548E-1
1.141825442E1,1.926597624E-1,-9.342973530E-2,9.748887241E-2,2.352678892E-1
1.142824342E1,1.646009844E-1,-1.524714106E-1,1.128864916E-1,2.511660310E-1
1.143823142E1,1.618619659E-1,-1.458693194E-1,1.126238054E-1,2.452779564E-1
1.144821942E1,1.340487162E-1,-8.699136615E-2,9.453427434E-2,1.856698282E-1
1.145820742E1,3.185438834E-2,-3.333497643E-3,1.252187079E-1,1.292499094E-1
1.146819542E1,8.855736014E-3,4.429207385E-2,1.465980287E-1,1.533988066E-1
1.147818442E1,-5.548203662E-3,-1.262530804E-2,1.274388957E-1,1.281828893E-1
1.148817242E1,7.180764545E-3,-8.374791563E-2,1.406044865E-1,1.638136086E-1
1.149816042E1,-3.328120032E-2,-1.877880085E-1,1.009151946E-1,2.157680489E-1
1.150814842E1,-5.538881008E-2,-2.217375273E-1,7.966992125E-2,2.420387317E-1
1.151813642E1,-1.385412599E-1,-2.197787100E-1,3.644511044E-2,2.623444456E-1
1.152812442E1,-2.713493796E-1,-1.817419875E-1,1.520685375E-2,3.269432431E-1
1.153811342E1,-4.814895576E-1,-4.703149438E-2,-1.035012719E-1,4.947288842E-1
1.154810142E1,-4.714691111E-1,4.549952388E-2,2.353738189E-2,4.742439643E-1
1.155808942E1,-5.672244302E-1,9.510730147E-2,-1.076434395E-1,5.851290995E-1
1.156807742E1,-4.511528872E-1,1.150275958E-1,-5.488810569E-2,4.688101743E-1
1.157806542E1,-2.146471205E-1,6.873928249E-2,-8.100557148E-2,2.395002670E-1
1.158805342E1,3.127154885E-2,-2.296669364E-2,-2.773012787E-2,4.769002805E-2
1.159804242E1,6.184049992E-2,-1.239194566E-1,6.362121463E-2,1.524071458E-1
1.160803042E1,6.532286402E-2,-1.969505954E-1,1.258753502E-1,2.426957300E-1
1.161801842E1,3.075913907E-1,-2.888840282E-1,1.805605575E-1,4.589864489E-1
1.162800642E1,4.703516716E-1,-4.466360593E-1,1.381588885E-1,6.631759517E-1
1.163799542E1,4.025634388E-1,-3.734160554E-1,-7.504082680E-2,5.541913012E-1
1.164798442E1,3.518219591E-1,-1.710211176E-1,-1.555704349E-1,4.209858356E-1
1.165797242E1,3.392037043E-1,-9.904774010E-2,-1.305101457E-1,3.766994903E-1
1.166796042E1,3.056007427E-1,-8.689664125E-2,-1.138768637E-1,3.375067114E-1
1.167794842E1,1.338431317E-1,-3.172406852E-2,-1.595520964E-1,2.106591368E-1
1.168793642E1,1.110264557E-1,-4.071591675E-2,-1.239861149E-1,1.713394771E-1
1.169792442E1,3.708715299E-2,-4.370559812E-2,-1.409328076E-1,1.521436574E-1
1.170791342E1,-5.023525693E-2,-1.518521905E-2,-1.144507679E-1,1.259092935E-1
1.171790142E1,-2.297665218E-2,-7.744871020E-2,-6.503360957E-2,1.037092071E-1
1.172788942E1,-1.638837503E-1,-1.347789055E-1,-1.016772330E-1,2.352902393E-1
1.173787742E1,-3.233503312E-1,-2.079012609E-1,-7.208900616E-2,3.911204364E-1
1.174786542E1,-4.749539785E-1,-3.083511633E-1,-1.278628188E-1,5.805261596E-1
1.175785442E1,-6.597856347E-1,-4.416887301E-1,-3.210836215E-1,8.564465600E-1
1.176784242E1,-9.720513627E-1,-4.794325072E-1,-3.715244812E-1,1.145761677E0
1.177783042E1,-1.109602287E0,-4.698021430E-1,-3.483794475E-1,1.254312373E0
1.178781842E1,-1.152175791E0,-5.003462434E-1,-5.153316338E-1,1.357726817E0
1.179780642E1,-1.138739182E0,-5.202519196E-1,-5.952664340E-1,1.386265166E0
1.180779442E1,-1.240485631E0,-6.293305582E-1,-6.109129983E-1,1.519235414E0
1.181778342E1,-1.285778456E0,-5.987279856E-1,-6.104770884E-1,1.544144978E0
1.182777142E1,-1.256417978E0,-5.782703322E-1,-6.964678498E-1,1.548563909E0
1.183775942E1,-1.157356716E0,-4.490989065E-1,-7.225495014E-1,1.436399032E0
1.184774742E1,-8.909668538E-1,-1.929703957E-1,-7.750238764E-1,1.196545660E0
1.185773542E1,-5.440403663E-1,2.855031681E-1,-7.015968812E-1,9.325932462E-1
1.186772442E1,-2.003263392E-1,8.710234630E-1,-4.896875001E-1,1.019120387E0
1.187771242E1,-3.424189785E-2,1.346687440E0,-3.359485593E-1,1.388380712E0
1.188770042E1,1.575711511E-1,1.641567203E0,-2.658398589E-1,1.670401862E0
1.189768842E1,4.381110381E-1,1.835870179E0,-2.872435918E-1,1.909154126E0
1.190767642E1,8.092075031E-1,1.829929408E0,-2.464007905E-1,2.015979110E0
1.191766442E1,1.183105808E0,1.637662432E0,-8.553014696E-2,2.022125862E0
1.192765342E1,1.553660601E0,1.296286195E0,1.719680741E-1,2.030712235E0
1.193764142E1,1.654778402E0,7.776843596E-1,3.690733284E-1,1.865288086E0
1.194762942E1,1.409455107E0,2.206984770E-1,6.179556772E-1,1.554715645E0
1.195761742E1,9.262017368E-1,-3.020449412E-1,6.693125032E-1,1.181972940E0
1.196760542E1,3.991391996E-1,-6.412846059E-1,5.643875805E-1,9.429164265E-1
1.197759442E1,3.392965654E-2,-7.438845295E-1,4.643311957E-1,8.775641709E-1
1.198758242E1,-2.416828732E-1,-6.226115227E-1,2.953729758E-1,7.302745471E-1
1.199757042E1,-3.926253283E-1,-3.050088948E-1,9.365529165E-2,5.059213259E-1
1.200755842E1,-5.050083746E-1,5.331666648E-2,-1.439064091E-1,5.278116898E-1
1.201754642E1,-5.711852610E-1,3.266658121E-1,-2.789069241E-1,7.146693134E-1
1.202753442E1,-6.150105078E-1,4.475394541E-1,-2.766311878E-1,8.093542498E-1
1.203752342E1,-6.957434528E-1,4.219099385E-1,-2.492179790E-1,8.509856341E-1
1.204751142E1,-7.678195951E-1,3.737587023E-1,-1.663809134E-1,8.700144289E-1
1.205749942E1,-7.572704872E-1,3.384842044E-1,-4.307585299E-2,8.305935688E-1
1.206748742E1,-6.708570452E-1,2.781122875E-1,1.708933559E-1,7.460564045E-1
1.207747542E1,-5.664707607E-1,1.249193305E-1,3.566149583E-1,6.809318544E-1
1.208746342E1,-4.451260158E-1,5.782077670E-2,4.307158452E-1,6.220904689E-1
1.209745242E1,-3.061524275E-1,2.137917459E-2,4.321101138E-1,5.300052154E-1
1.210744042E1,-1.955717854E-1,1.509423637E-1,2.214939907E-1,3.318004044E-1
1.211742842E1,-2.123798991E-1,2.364087760E-1,-1.995154765E-1,3.752342686E-1
1.212741642E1,-3.488229588E-1,3.208080715E-1,-4.522844696E-1,6.551003868E-1
1.213740442E1,-5.871279503E-1,3.808461124E-1,-4.620882037E-1,8.386229781E-1
1.214739342E1,-8.072965600E-1,3.476000136E-1,-3.318144317E-1,9.394968453E-1
1.215738142E1,-8.072642541E-1,3.131739467E-1,-2.537899169E-1,9.023097133E-1
1.216736942E1,-6.183823778E-1,2.666324490E-1,-2.482928033E-1,7.177318052E-1
1.217735742E1,-3.983988325E-1,2.829917890E-1,-1.786607972E-1,5.203130431E-1
1.218734542E1,-2.006457433E-1,3.291128719E-1,-3.849046648E-2,3.873699947E-1
1.219733342E1,-6.165578272E-2,2.894576401E-1,9.666192994E-2,3.113369391E-1
1.220732242E1,-3.747465894E-2,9.402322769E-2,2.476786995E-1,2.675620593E-1
1.221731042E1,9.174482357E-2,1.897257757E-1,2.824478517E-1,3.524056918E-1
1.222729842E1,-1.352582676E-1,3.766659379E-2,3.267098124E-1,3.556021271E-1
1.223728642E1,-2.531886404E-1,1.029694676E-1,2.634616502E-1,3.796303992E-1
1.224727442E1,-2.258034252E-1,2.467256033E-1,1.562082200E-1,3.691364492E-1
1.225726342E1,-1.516230162E-1,3.863074118E-1,9.547582224E-2,4.258386879E-1
1.226725142E1,-2.772838102E-1,3.011152339E-1,4.696600556E-2,4.120224522E-1
1.227723942E1,-1.773184226E-1,4.255884218E-1,9.063184261E-5,4.610502532E-1
1.228722742E1,-8.774529152E-2,5.537020862E-2,2.018458843E-2,1.057001126E-1
1.229721542E1,-4.047680218E-2,-3.007018358E-1,3.704927400E-2,3.056674897E-1
1.230720342E1,2.920647673E-3,-3.570754266E-1,1.817456420E-1,4.006780114E-1
1.231719242E1,-1.441049952E-2,-4.372366601E-1,4.428442861E-1,6.224906595E-1
1.232718042E1,-5.168196771E-2,-5.549147987E-1,5.706667592E-1,7.976603348E-1
1.233716842E1,-9.942576259E-2,-6.174595410E-1,5.966434532E-1,8.643640305E-1
1.234715642E1,2.098344600E-2,-3.095340550E-2,6.228607602E-1,6.239823274E-1
1.235714442E1,3.373421336E-2,2.261913514E-1,7.566166954E-1,7.904235247E-1
1.236713342E1,1.525787070E-2,3.984783912E-1,8.306326514E-1,9.213948299E-1
1.237712142E1,-2.345390375E-2,3.841269851E-1,7.588257734E-1,8.508349903E-1
1.238710942E1,-8.228777451E-3,2.448895776E-1,5.848974203E-1,6.341479403E-1
1.239709742E1,-6.752335399E-2,3.071191549E-2,4.379903662E-1,4.442276286E-1
1.240708542E1,-2.277135278E-1,-2.966152167E-1,3.949108587E-1,5.438645271E-1
1.241707342E1,-3.646911326E-1,-5.724511832E-1,3.751993831E-1,7.755479073E-1
1.242706242E1,-2.190909313E-1,-6.555313468E-1,3.120735008E-1,7.583614261E-1
1.243705042E1,-4.029067799E-2,-5.628898162E-1,2.922777522E-1,6.355270004E-1
1.244703842E1,9.909320220E-2,-3.385198724E-1,2.177520651E-1,4.145251845E-1
1.245702642E1,1.562675692E-1,-1.679905057E-3,1.107743311E-1,1.915550252E-1
1.246701442E1,6.825732574E-2,2.763780034E-1,7.484311782E-2,2.943558315E-1
1.247700342E1,9.105649665E-2,7.141280490E-1,-3.454241185E-1,7.984910629E-1
1.248699142E1,-8.749934301E-2,5.413422418E-1,-3.162345256E-1,6.330180352E-1
1.249697942E1,4.084309369E-2,1.794346762E-1,-3.543617338E-1,3.992958799E-1
1.250696742E1,2.593528117E-1,-2.633118153E-1,-2.323003031E-1,4.365322712E-1
1.251695542E1,4.517589511E-1,-5.618969589E-1,-1.640918747E-2,7.211682216E-1
1.252694342E1,3.774449332E-1,-6.068614626E-1,1.212847012E-1,7.248830879E-1
1.253693242E1,3.650228159E-1,-4.878560060E-1,8.413704783E-3,6.093569801E-1
1.254692042E1,4.427837674E-1,-2.434996945E-1,-3.384238319E-1,6.081778160E-1
1.255690842E1,5.968576075E-1,3.781277418E-2,-5.147964674E-1,7.891034231E-1
1.256689642E1,6.900420521E-1,1.773051202E-1,-4.243517357E-1,8.292584247E-1
1.257688442E1,7.691522487E-1,2.266246301E-1,-2.987617296E-1,8.556941484E-1
1.258687242E1,8.412719527E-1,1.522995025E-1,-2.103903475E-1,8.804531419E-1
1.259686142E1,1.104266849E0,1.915226251E-1,-2.411882901E-1,1.146410913E0
1.260684942E1,1.273331196E0,1.427129924E-1,-3.743347261E-1,1.334865469E0
1.261683742E1,1.323957412E0,2.355667770E-2,-2.201974437E-1,1.342350573E0
1.262682542E1,1.359369466E0,-1.135698849E-1,-1.475772911E-1,1.372065057E0
1.263681317E1,1.332918270E0,-1.697516870E-1,-1.239229649E-1,1.349386398E0
1.264680217E1,1.225868688E0,-1.215337926E-1,-5.571585216E-2,1.233137770E0
1.265679017E1,1.197635335E0,5.459428310E-2,-1.935750709E-1,1.214406126E0
1.266677817E1,9.886330430E-1,-2.933080316E-2,-7.257739484E-2,9.917273153E-1
1.267676617E1,8.807464325E-1,-1.678221059E-1,-3.611708164E-2,8.973198878E-1
1.268675417E1,7.772337585E-1,-2.894962317E-1,-5.185310841E-3,8.294138116E-1
1.269674217E1,7.560745854E-1,-4.283471382E-1,7.169673108E-2,8.719349005E-1
1.270673117E1,7.833899995E-1,-4.510121155E-1,2.848938882E-2,9.043912123E-1
1.271671917E1,7.947430265E-1,-4.761036873E-1,-9.792098165E-2,9.316006214E-1
1.272670717E1,8.589028428E-1,-3.531917059E-1,-1.959584691E-2,9.288931433E-1
1.273669517E1,8.006622360E-1,-2.890155905E-1,6.885790788E-2,8.540090393E-1
1.274668317E1,8.742741495E-1,-2.733087999E-1,-5.106548846E-2,9.174206628E-1
1.275667217E1,9.884730486E-1,-1.075688875E-1,-1.700353501E-1,1.008742808E0
1.276666017E1,9.714640830E-1,-1.690254629E-2,-2.613003731E-1,1.006134209E0
1.277664817E1,9.912267217E-1,2.696116054E-1,-2.444878008E-1,1.055933292E0
1.278663617E1,9.792582753E-1,3.849455953E-1,-2.451836926E-1,1.080391098E0
1.279662417E1,1.040708638E0,3.362043750E-1,-3.586724474E-1,1.150979485E0
1.280661217E1,1.168645936E0,2.676329076E-1,-3.797404039E-1,1.257602270E0
1.281660117E1,1.217252378E0,5.794766128E-2,-3.489822954E-1,1.267615843E0
1.282658917E1,1.141021716E0,-1.584320623E-1,-3.029179305E-1,1.191129945E0
1.283657717E1,9.569908355E-1,-2.625411522E-1,-2.916749773E-1,1.034327612E0
1.284656517E1,7.809396507E-1,-2.217913216E-1,-3.300116620E-1,8.763365937E-1
1.285655317E1,6.297720230E-1,-7.352113545E-2,-4.017236689E-1,7.505998031E-1
1.286654217E1,5.741250949E-1,-4.646256030E-2,-3.626180023E-1,6.806395593E-1
1.287653017E1,7.608835548E-1,-9.160248041E-3,-2.914878664E-1,8.148575768E-1
1.288651817E1,7.557659255E-1,-1.175401443E-1,-2.590241251E-1,8.075217131E-1
1.289650617E1,7.964102139E-1,-1.319266337E-1,-1.354307970E-1,8.185446635E-1
1.290649417E1,8.623706071E-1,-1.262402165E-1,-7.398767017E-2,8.746964225E-1
1.291648217E1,8.707556605E-1,-3.893310070E-2,-9.993476272E-2,8.773358328E-1
1.292647117E1,8.120564859E-1,-5.341665387E-2,-1.444935427E-1,8.265394480E-1
1.293645917E1,7.704981315E-1,-1.338094372E-1,-1.452898604E-1,7.954127731E-1
1.294644717E1,6.321637534E-1,-2.285618126E-1,-1.903602717E-1,6.986476554E-1
1.295643517E1,4.919861868E-1,-3.405424243E-1,-2.269229112E-1,6.399324639E-1
1.296642317E1,4.916319186E-1,-5.284397757E-1,-3.167015719E-1,7.881944085E-1
1.297641117E1,5.821945448E-1,-6.805363798E-1,-5.134971430E-1,1.032356318E0
1.298640017E1,5.411644864E-1,-6.493642884E-1,-6.689027596E-1,1.077944285E0
1.299638817E1,2.876653223E-1,-5.730540311E-1,-7.865417218E-1,1.014785761E0
1.300637617E1,-2.140384253E-1,-4.932822222E-1,-7.327952850E-1,9.089162381E-1
1.301636417E1,-8.182025673E-1,-3.644247919E-1,-4.722492027E-1,1.012561198E0
1.302635217E1,-1.132187669E0,-2.848605591E-1,-3.042657137E-1,1.206470920E0
1.303634117E1,-1.454623825E0,-3.084230840E-2,-1.188013887E-1,1.459792961E0
1.304632917E1,-1.728706942E0,2.546930194E-2,8.982551157E-2,1.731226444E0
1.305631717E1,-1.814232265E0,1.413190162E-1,2.724224351E-1,1.840006456E0
1.306630517E1,-1.600065859E0,3.099492073E-1,4.600736187E-1,1.693501402E0
1.307629317E1,-1.246404183E0,2.628908157E-1,4.603197864E-1,1.354447959E0
1.308628117E1,-9.079283839E-1,2.723779231E-1,3.599908483E-1,1.013961091E0
1.309627017E1,-6.905605540E-1,3.595903140E-1,4.002122368E-1,8.754135635E-1
1.310625817E1,-3.581559189E-1,3.113414294E-1,4.622913945E-1,6.625122499E-1
1.311624617E1,-9.194483489E-2,1.500407231E-1,3.632880932E-1,4.036636098E-1
1.312623417E1,5.710237774E-2,7.584306479E-2,3.310882075E-1,3.444303314E-1
1.313622217E1,2.327848180E-1,4.266303957E-2,2.506881883E-1,3.447513222E-1
1.314621117E1,3.289313158E-1,1.147364044E-1,6.236230910E-2,3.539057934E-1
1.315619917E1,1.781855647E-1,2.478991395E-1,2.883408219E-3,3.053070469E-1
1.316618717E1,1.288507059E-2,2.625937772E-1,-1.029805773E-1,2.823588429E-1
1.317617517E1,-4.866133265E-1,2.847623259E-1,-6.060682878E-2,5.670584621E-1
1.318616317E1,-7.834966381E-1,2.130760467E-1,-4.612283707E-3,8.119665367E-1
1.319615117E1,-8.110542000E-1,1.149223459E-1,1.181682815E-1,8.276350667E-1
1.320614017E1,-7.847855106E-1,3.234328866E-2,2.876420796E-1,8.364641964E-1
1.321612817E1,-5.685084788E-1,-4.032356858E-2,4.092140253E-1,7.016295312E-1
1.322611617E1,-2.251134172E-1,-1.559177595E-1,4.267561108E-1,5.070573700E-1
1.323610417E1,7.510916613E-2,-8.672005534E-2,3.506623466E-1,3.689523495E-1
1.324609217E1,3.885390016E-1,-6.315168321E-2,2.236805570E-1,4.527512369E-1
1.325608017E1,5.096806654E-1,-1.455079615E-2,1.000255407E-1,5.196067889E-1
1.326606917E1,4.918542590E-1,5.923229456E-4,2.890512586E-2,4.927032263E-1
1.327605717E1,4.620958051E-1,-9.543649971E-2,-3.711490899E-2,4.733055832E-1
1.328604517E1,3.411739236E-1,-2.056723022E-1,-8.334153414E-2,4.069969943E-1
1.329603317E1,1.802225885E-1,-2.152810317E-1,-6.410360992E-2,2.879850288E-1
1.330602117E1,1.240595705E-1,-1.420399779E-1,-7.170966804E-2,2.017632495E-1
1.331601017E1,3.784537241E-2,1.789715767E-2,-5.222966909E-2,6.693667753E-2
1.332599817E1,-1.321298336E-1,1.384345847E-1,6.178124204E-2,2.010953730E-1
1.333598617E1,-2.045971089E-1,1.348853248E-1,1.846455686E-1,3.068354833E-1
1.334597417E1,-3.185743255E-1,1.381036323E-1,2.938763809E-1,4.548906917E-1
1.335596217E1,-3.324436286E-1,1.394900072E-1,3.744543748E-1,5.198002569E-1
1.336595017E1,-2.973416602E-1,1.876967919E-1,2.996278484E-1,4.619729387E-1
1.337593917E1,-3.582926342E-1,2.407772309E-1,2.206740649E-1,4.848137060E-1
1.338592717E1,-3.539389436E-1,2.010606033E-1,1.357359485E-1,4.290948493E-1
1.339591517E1,-2.941876721E-1,1.984977686E-1,6.953640416E-2,3.616394089E-1
1.340590317E1,-2.657330376E-1,2.669984847E-1,-3.960319161E-3,3.767199520E-1
1.341589117E1,-3.522198987E-1,3.314728081E-1,-5.593563437E-2,4.868900027E-1
1.342588017E1,-4.640691673E-1,3.307097465E-1,-4.761168435E-2,5.718356415E-1
1.343586817E1,-5.245096062E-1,2.367800742E-1,-3.172421470E-2,5.763519380E-1
1.344585617E1,-4.321535294E-1,4.884003818E-2,4.158174321E-2,4.368879303E-1
1.345584417E1,-2.131913830E-1,-1.492460865E-1,1.781377637E-1,3.153696609E-1
1.346583217E1,-8.966487760E-2,-2.749495286E-1,3.367065047E-1,4.438561747E-1
1.347582017E1,7.860724462E-2,-2.687865633E-1,3.823779367E-1,4.739601270E-1
1.348580917E1,3.931258134E-1,4.199002504E-2,2.679246837E-1,4.775926125E-1
1.349579717E1,5.186594304E-1,4.493784034E-1,1.259917098E-1,6.977266407E-1
1.350578517E1,2.541787020E-1,5.823803401E-1,6.065886900E-2,6.383205867E-1
1.351577317E1,-2.507209144E-1,4.129718846E-1,4.699173331E-2,4.854018721E-1
1.352576117E1,-2.389427583E-1,2.960129535E-1,3.084990978E-3,3.804297932E-1
1.353575017E1,-1.234561379E-1,2.014646459E-1,-6.213017464E-2,2.443145106E-1
1.354573817E1,-3.324237116E-2,1.115771538E-1,6.997801512E-3,1.166339818E-1
1.355572617E1,-5.822432594E-2,3.493302047E-2,1.177863121E-1,1.359558876E-1
1.356571417E1,-1.328400053E-1,-4.271566451E-2,1.922090882E-1,2.375193226E-1
1.357570217E1,-3.565982938E-1,-4.999369383E-4,2.296447170E-1,4.241453632E-1
1.358569017E1,-7.187712499E-1,1.172641557E-1,3.525298011E-1,8.091107789E-1
1.359567917E1,-7.803943978E-1,8.668555677E-2,3.347133350E-1,8.535589134E-1
1.360566717E1,-4.221862925E-1,-8.782868743E-2,3.542927366E-1,5.581025776E-1
1.361565517E1,-1.164265421E-1,-2.534972638E-1,4.557746726E-1,5.343655628E-1
1.362564317E1,9.080353148E-2,-3.844380569E-1,4.778343169E-1,6.199705924E-1
1.363563117E1,3.440321523E-1,-3.352705747E-1,3.893150733E-1,6.183289629E-1
1.364561942E1,2.627192730E-1,-1.166303176E-1,3.944484901E-1,4.880713665E-1
1.365560842E1,2.080859598E-1,1.160146058E-2,4.221068434E-1,4.707531708E-1
1.366559642E1,1.730374203E-1,1.130781341E-1,4.070730673E-1,4.565491160E-1
1.367558442E1,-3.236621340E-1,1.744294596E-1,4.342656898E-1,5.690074716E-1
1.368557242E1,5.595157535E-1,-1.003013831E-1,3.367674619E-1,6.607046006E-1
1.369556042E1,1.184310115E0,1.525509328E-1,1.399648011E-1,1.202269679E0
1.370554942E1,7.091604008E-1,4.188372266E-1,3.133043396E-1,8.811882351E-1
1.371553742E1,4.652993118E-1,2.624803412E-1,1.358729196E-1,5.512357294E-1
1.372552542E1,1.642967099E-1,1.034056699E-1,5.511103079E-2,2.018003151E-1
1.373551342E1,-1.048083804E-1,-1.140382469E-2,5.345860764E-2,1.182060343E-1
1.374550142E1,-3.173127522E-1,-1.445145196E-1,-3.989555240E-3,3.486943441E-1
1.375548942E1,-3.116152618E-1,-2.373110014E-1,-5.986891016E-2,3.962383994E-1
1.376547842E1,-4.362993149E-1,-1.975177753E-1,-8.410941973E-2,4.862558568E-1
1.377546642E1,-4.698559739E-1,-1.060106045E-1,-6.476712272E-2,4.860017126E-1
1.378545442E1,-4.315364289E-1,-3.803379893E-2,-3.846415401E-2,4.349134976E-1
1.379544242E1,-4.396940987E-1,-1.876839280E-2,-5.018679813E-2,4.429468001E-1
1.380543042E1,-4.458177780E-1,-2.814089477E-2,-1.433474153E-1,4.691416445E-1
1.381541942E1,-4.788036026E-1,-1.267325521E-2,-2.217819661E-1,5.278264314E-1
1.382540742E1,-6.794495286E-1,7.065950811E-2,-2.548544025E-1,7.291057499E-1
1.383539542E1,-7.432696947E-1,1.867448652E-1,-1.959736718E-1,7.910304443E-1
1.384538342E1,-7.196656546E-1,2.261176765E-1,-1.495840555E-1,7.690404721E-1
1.385537142E1,-6.757745536E-1,1.850135046E-1,-3.033126175E-2,7.012996717E-1
1.386535942E1,-4.867464969E-1,1.351063496E-1,8.797135949E-2,5.127522189E-1
1.387534842E1,-1.316843397E-1,3.867231488E-2,1.966588193E-1,2.398145210E-1
1.388533642E1,3.137706916E-1,-7.311709285E-2,2.641795421E-1,4.166401165E-1
1.389532442E1,6.962580809E-1,-1.200848526E-1,2.881216975E-1,7.630267358E-1
1.390531242E1,9.521738993E-1,8.508868217E-3,1.946700351E-1,9.719073813E-1
1.391530042E1,9.348056222E-1,1.721607399E-1,8.544463143E-2,9.543592912E-1
1.392528842E1,8.458021561E-1,2.280355632E-1,-4.906062439E-2,8.773758888E-1
1.393527742E1,6.537301120E-1,2.253972995E-1,-1.437058496E-1,7.062707506E-1
1.394526542E1,4.475551685E-1,1.070578408E-1,-1.457406807E-1,4.827083552E-1
1.395525342E1,3.080461944E-1,-4.965689421E-2,-1.253422303E-1,3.362572523E-1
1.396524142E1,1.925311602E-1,-8.940509677E-2,-1.337590049E-1,2.509043450E-1
1.397522942E1,4.581198446E-2,-3.463890553E-3,-1.401688689E-1,1.475060957E-1
1.398521842E1,-8.829339489E-2,6.960116208E-2,-9.005706131E-2,1.440497124E-1
1.399520642E1,-1.481330324E-1,1.542746919E-1,-2.910904750E-2,2.158504402E-1
1.400519442E1,-1.791198767E-1,1.550687438E-1,1.947824478E-2,2.377175794E-1
1.401518242E1,-1.593635603E-1,1.294795740E-1,6.544554591E-2,2.155106120E-1
1.402517042E1,-2.126944062E-1,1.263378650E-1,6.508696541E-2,2.558055505E-1
1.403515842E1,-2.473099595E-1,1.745054734E-1,1.097440517E-1,3.219598316E-1
1.404514742E1,-2.958460521E-1,1.158649170E-1,1.379450266E-1,3.463789773E-1
1.405513542E1,-3.457132998E-1,-7.658975422E-2,2.022734620E-1,4.077967994E-1
1.406512342E1,-2.452282045E-1,-2.456216490E-1,2.800559020E-1,4.459800164E-1
1.407511142E1,4.778552938E-2,-2.495164794E-1,2.718164442E-1,3.720565947E-1
1.408509942E1,2.749129469E-1,-8.184640110E-2,1.211468531E-1,3.113719990E-1
1.409508842E1,3.798543150E-1,1.364196342E-1,-2.811882153E-2,4.045865610E-1
1.410507642E1,3.666095310E-1,3.001960516E-1,-1.212759304E-1,4.891094651E-1
1.411506442E1,2.838370406E-1,3.247730684E-1,-1.863152410E-1,4.698450602E-1
1.412505242E1,1.181328327E-1,2.514466453E-1,-2.329635966E-1,3.625642273E-1
1.413504042E1,2.986136489E-3,1.677782518E-1,-2.035803147E-1,2.638245692E-1
1.414502842E1,-7.833160322E-2,8.172185540E-2,-1.072474368E-1,1.559368924E-1
1.415501742E1,-9.128219917E-2,6.246580482E-3,-4.951597631E-2,1.040350497E-1
1.416500542E1,-8.608892150E-3,5.150227547E-3,-2.898026258E-3,1.044205076E-2
1.417499342E1,-7.260414585E-4,-3.168138385E-2,7.146715477E-2,7.817794721E-2
1.418498142E1,-5.098698959E-3,-1.404705852E-1,1.667875873E-1,2.181194198E-1
1.419496942E1,-2.923790552E-2,-2.313901109E-1,1.850404018E-1,2.977183045E-1
1.420495742E1,-1.173013587E-1,-2.647116387E-1,1.735899456E-1,3.375875140E-1
1.421494642E1,-1.803570744E-1,-2.120691562E-1,9.450269938E-2,2.939944923E-1
1.422493442E1,-1.800229792E-1,-7.800302625E-2,3.605276227E-2,1.994806928E-1
1.423492242E1,-6.593627349E-2,-1.268085659E-2,3.238714278E-2,7.454745671E-2
1.424491042E1,-1.845900200E-2,3.260992169E-3,3.845421374E-2,4.277961406E-2
1.425489842E1,6.147477485E-2,1.186400056E-3,4.904746816E-2,7.865246100E-2
1.426488742E1,1.407085304E-1,6.661089599E-2,3.125439093E-2,1.587851975E-1
1.427487542E1,1.145408516E-1,2.094554508E-1,1.625482097E-2,2.392810309E-1
1.428486342E1,1.254367360E-1,3.324124557E-1,1.380001366E-2,3.555599187E-1
1.429485142E1,1.363157365E-1,3.288240194E-1,7.562350184E-3,3.560398923E-1
1.430483942E1,1.109291727E-1,2.179660732E-1,-1.043669522E-2,2.447925959E-1
1.431482742E1,5.812241994E-2,8.416949987E-2,-1.311194256E-2,1.031244076E-1
1.432481642E1,-4.368637539E-3,-3.953945696E-2,2.552894354E-3,3.986189810E-2
1.433480442E1,-8.928895645E-2,-1.267898548E-1,6.146242261E-2,1.668107143E-1
1.434479242E1,-1.685989085E-1,-2.122334629E-1,1.062924403E-1,2.911472438E-1
1.435478042E1,-1.335644388E-1,-2.851494116E-1,1.026829541E-1,3.311999929E-1
1.436476842E1,-1.069070558E-1,-3.274253654E-1,8.121899486E-2,3.538827682E-1
1.437475742E1,-1.313219220E-1,-2.874099451E-1,3.136578038E-2,3.175432820E-1
1.438474542E1,-1.625811003E-1,-1.820442885E-1,7.086679190E-3,2.441781280E-1
1.439473342E1,-1.312915896E-1,-5.234018147E-2,9.770697355E-3,1.416772480E-1
1.440472142E1,-1.796390729E-1,2.837712228E-2,-1.737938672E-3,1.818748966E-1
1.441470942E1,-2.023720606E-1,1.360939443E-2,3.593333289E-2,2.059875505E-1
1.442469742E1,-8.699238941E-2,-3.048679769E-2,6.526428223E-2,1.129448856E-1
1.443468642E1,-2.069943577E-2,-3.742451906E-2,7.131264210E-2,8.315379842E-2
1.444467442E1,-3.875797659E-2,-1.098107100E-3,7.307616234E-2,8.272552261E-2
1.445466242E1,-2.167734604E-2,9.245441973E-2,4.997469038E-2,1.073088847E-1
1.446465042E1,3.654984869E-3,2.456725198E-1,-5.490374699E-2,2.517593441E-1
1.447463842E1,-5.401098680E-2,3.446050698E-1,-1.315225911E-1,3.727841638E-1
1.448462642E1,-1.864540393E-1,3.630717462E-1,-1.402232480E-1,4.315654770E-1
1.449461542E1,-2.688661585E-1,2.810692245E-1,-1.118063647E-1,4.047092578E-1
1.450460342E1,-3.223125966E-1,1.214004761E-1,-8.427606538E-2,3.545785396E-1
1.451459142E1,-2.407604932E-1,-4.546093225E-2,-2.530499518E-2,2.463181971E-1
1.452457942E1,-1.244014134E-1,-1.977235973E-1,-7.955721617E-3,2.337383710E-1
1.453456742E1,-4.022909950E-2,-2.961948019E-1,-1.440943971E-2,2.992613792E-1
1.454455642E1,8.197365113E-2,-3.026033503E-1,8.526702225E-3,3.136258467E-1
1.455454442E1,2.127860248E-2,-2.887243992E-1,3.013596475E-2,2.910716991E-1
1.456453242E1,5.206879757E-2,-1.625619507E-1,5.612596124E-3,1.707894866E-1
1.457452042E1,1.303328655E-1,5.744597018E-2,-8.523486257E-2,1.659869787E-1
1.458450842E1,3.952885889E-2,2.129719663E-1,-1.303071012E-1,2.527835630E-1
1.459449642E1,-5.768468276E-2,3.031354469E-1,-1.234015395E-1,3.323350143E-1
1.460448542E1,-9.059876930E-2,3.278937274E-1,-1.246119131E-1,3.622851948E-1
1.461447342E1,-1.820961095E-1,2.721048582E-1,-1.170043932E-1,3.476925006E-1
1.462446142E1,-2.044906896E-1,1.935808450E-1,-8.806082189E-2,2.950333778E-1
1.463444942E1,-3.061098524E-1,7.497416854E-2,2.516290784E-2,3.161606231E-1
1.464443729E1,-2.225841310E-1,-2.969683886E-2,1.220885472E-1,2.555997085E-1
1.465442629E1,-2.015855736E-1,-1.253964633E-1,1.710537158E-1,2.926096208E-1
1.466441429E1,-2.077448478E-1,-1.947678298E-1,1.928644149E-1,3.439318419E-1
1.467440229E1,-8.770841751E-2,-2.045385271E-1,1.909082289E-1,2.932144735E-1
1.468439029E1,-1.116650082E-2,-1.401840717E-1,1.778050572E-1,2.266956176E-1
1.469437829E1,7.282827694E-2,-7.139274895E-2,1.565631460E-1,1.868499430E-1
1.470436629E1,1.329961625E-1,-1.924494088E-2,1.454937820E-1,1.980575361E-1
1.471435529E1,1.694337082E-1,5.437384307E-2,1.352221245E-1,2.234934433E-1
1.472434329E1,2.236553774E-1,8.322342038E-2,1.115284757E-1,2.634131099E-1
1.473433129E1,2.808219603E-1,8.084184945E-2,1.005938901E-1,3.090558344E-1
1.474431929E1,3.241429944E-1,8.079039395E-2,1.186401518E-1,3.545014163E-1
1.475430729E1,2.498950866E-1,2.433377266E-2,1.091850579E-1,2.737901818E-1
1.476429529E1,2.961670642E-1,-4.468500674E-2,1.374323720E-1,3.295441345E-1
1.477428429E1,3.736862333E-1,8.953841329E-3,1.552833366E-1,4.047647303E-1
1.478427229E1,3.493912350E-1,4.007681608E-3,1.232272924E-1,3.705067641E-1
1.479426029E1,3.043540797E-1,-3.155742288E-3,9.339567527E-2,3.183773182E-1
1.480424829E1,2.192916369E-1,7.166347504E-3,7.553199291E-2,2.320458156E-1
1.481423629E1,1.708131760E-1,7.694351077E-3,6.740129337E-2,1.837913993E-1
1.482422529E1,1.143009696E-1,4.182104051E-2,4.073214278E-2,1.283464785E-1
1.483421329E1,2.095349729E-3,4.079368472E-2,1.537379175E-3,4.087638363E-2
1.484420129E1,-2.490281638E-2,5.897092402E-2,-3.581288025E-2,7.335040923E-2
1.485418929E1,-6.939358592E-2,1.065058637E-1,-5.053631544E-2,1.367950582E-1
1.486417729E1,-1.222244950E-1,1.347713041E-1,-4.943353057E-2,1.885359529E-1
1.487416529E1,-1.468949211E-1,1.230838895E-1,-5.031236708E-2,1.981390824E-1
1.488415429E1,-1.742373785E-1,1.109655350E-1,-4.728307083E-2,2.119143762E-1
1.489414229E1,-1.839617367E-1,6.297509730E-2,-2.043601871E-2,1.955132075E-1
1.490413029E1,-1.701751716E-1,3.279703259E-2,9.179105312E-3,1.735496769E-1
1.491411829E1,-1.495677564E-1,2.204224885E-2,2.166510344E-2,1.527277028E-1
1.492410629E1,-1.640084057E-1,7.747560740E-4,2.524301469E-2,1.659414570E-1
1.493409529E1,-1.444582036E-1,-2.152067721E-2,3.880563140E-2,1.511197841E-1
1.494408329E1,-1.013391908E-1,-1.343807101E-2,1.978639305E-2,1.041235550E-1
1.495407129E1,-9.130533222E-2,5.851893425E-3,-1.076180041E-2,9.212342100E-2
1.496405929E1,-4.689346354E-2,-4.684204459E-3,-6.545007750E-2,8.065141871E-2
1.497404729E1,3.467662007E-2,-3.002662182E-2,-9.907566056E-2,1.091789930E-1
1.498403529E1,4.881423734E-2,-3.127675653E-3,-1.061803199E-1,1.169053996E-1
1.499402429E1,3.079911210E-3,7.000871301E-3,-7.293012813E-2,7.333008687E-2
1.500401229E1,5.111968484E-2,-6.088705659E-3,-4.623671159E-2,6.919630058E-2
1.501400029E1,1.169692003E-1,-2.109675407E-3,-4.184969187E-2,1.242483048E-1
1.502398829E1,1.215158490E-1,-1.624473453E-2,1.935603797E-2,1.241154670E-1
1.503397629E1,9.610282648E-2,-4.927507102E-2,3.710584581E-2,1.141955764E-1
1.504396429E1,6.161094189E-2,-7.067704976E-2,7.209441483E-2,1.182740807E-1
1.505395329E1,3.315934069E-2,-6.796043336E-2,7.780889869E-2,1.085006318E-1
1.506394129E1,-8.930298977E-2,-6.677520275E-3,1.465370715E-1,1.717344653E-1
1.507392929E1,-3.636217500E-1,1.568164766E-1,2.275432277E-1,4.567144675E-1
1.508391729E1,7.979636729E-2,2.507461488E-2,-3.499500096E-2,9.066888461E-2
1.509390529E1,-3.438122604E-2,1.898415506E-2,2.025709391E-2,4.419068568E-2
1.510389429E1,2.375749301E-2,1.828716695E-2,7.139918089E-2,7.743824624E-2
1.511388229E1,4.828955937E-2,-1.071209908E-2,-3.966166377E-3,4.962218341E-2
1.512387029E1,3.238688696E-2,-6.036665440E-3,1.674291730E-2,3.695506807E-2
1.513385829E1,8.034805208E-2,-2.500269413E-2,-4.905229211E-3,8.429119445E-2
1.514384629E1,1.250192813E-1,-4.679702103E-2,-1.090549573E-2,1.339354759E-1
1.515383429E1,6.198414043E-4,-2.166568816E-2,-1.422496006E-2,2.592558071E-2
1.516382329E1,-1.279950755E-1,1.228207648E-2,3.580776393E-2,1.334757833E-1
1.517381129E1,-7.649188645E-2,3.708070278E-2,2.925069630E-2,8.989766652E-2
1.518379929E1,-8.417213112E-3,1.714637518E-2,-1.412146434E-2,2.375422938E-2
1.519378729E1,4.189632341E-2,5.642563105E-4,6.044559181E-4,4.190448267E-2
1.520377529E1,6.892398141E-2,-1.827079475E-2,1.817066118E-2,7.358335466E-2
1.521376429E1,3.610732410E-2,-2.957229316E-2,1.768548846E-2,4.991027829E-2
1.522375229E1,-2.713828001E-2,-3.170301855E-2,1.028919920E-2,4.298180135E-2
1.523374029E1,-2.646493658E-2,-3.132119536E-2,2.333857656E-2,4.718155681E-2
1.524372829E1,-1.950601906E-2,2.605694711E-2,2.475667253E-2,4.089427964E-2
1.525371629E1,-5.206704341E-2,4.257474661E-2,2.336371958E-2,7.120006637E-2
1.526370429E1,-1.915518612E-2,5.178352654E-2,1.689143658E-2,5.773885525E-2
1.527369329E1,-2.092871971E-2,3.811741412E-2,4.775362551E-2,6.458604584E-2
1.528368129E1,-2.396397281E-2,3.580893338E-2,7.102218166E-2,8.307046401E-2
1.529366929E1,-1.388713717E-6,4.346059978E-2,4.995232478E-2,6.621222309E-2
1.530365729E1,1.254783243E-2,6.173022509E-2,3.987669513E-2,7.455346808E-2
1.531364529E1,-2.198772356E-3,3.850742340E-2,5.735943139E-2,6.912134711E-2
1.532363329E1,-3.430733185E-2,-2.592889309E-2,5.605009362E-2,7.064639772E-2
1.533362229E1,-5.520692512E-2,-3.022718132E-2,2.703971788E-2,6.850279859E-2
1.534361029E1,-4.708996654E-2,-9.833262563E-3,1.123410925E-2,4.940003251E-2
1.535359829E1,-4.669564493E-2,-6.373465061E-5,-1.751241088E-3,4.672851552E-2
1.536358629E1,-5.329082910E-2,-1.229961812E-2,-1.519048154E-2,5.676216875E-2
1.537357429E1,-7.977429405E-3,-3.204508066E-2,-3.359225392E-3,3.319353807E-2
1.538356329E1,7.946382517E-2,-6.283417940E-2,-4.121117592E-2,1.093663323E-1
1.539355129E1,1.389957164E-1,-7.297383606E-2,-5.055137202E-2,1.649255321E-1
1.540353929E1,6.402598813E-2,-1.272412598E-2,-1.034372449E-2,6.609253494E-2
1.541352729E1,1.690919749E-2,-3.084990978E-3,-9.960147142E-3,1.986561503E-2
1.542351529E1,4.336276855E-2,1.557522833E-2,-2.061143517E-3,4.612120713E-2
1.543350329E1,2.000241112E-2,8.169729710E-2,2.668727696E-2,8.824259490E-2
1.544349229E1,1.162308431E-1,1.000686640E-1,1.490323707E-2,1.540955965E-1
1.545348029E1,1.801926946E-1,9.720294356E-2,-4.219409287E-2,2.090410507E-1
1.546346829E1,5.270252611E-2,9.156388879E-2,-5.377581909E-2,1.185467870E-1
1.547345629E1,-3.985520661E-2,3.973358452E-2,-2.210262135E-2,6.046255952E-2
1.548344429E1,-4.229609024E-2,1.214057386E-2,2.659430623E-2,5.141604717E-2
1.549343229E1,1.054956475E-2,2.780935764E-3,4.528142273E-2,4.657718503E-2
1.550342129E1,2.982672013E-2,-1.333632946E-2,6.555898190E-3,3.332372606E-2
1.551340929E1,3.043733390E-2,-1.525480092E-2,9.109961987E-4,3.405833466E-2
1.552339729E1,4.838468626E-2,-4.310158074E-2,4.514693677E-2,7.897512284E-2
1.553338529E1,1.576037859E-1,-4.552174330E-2,3.683935896E-2,1.681318554E-1
1.554337329E1,1.804800852E-1,-4.872309387E-2,-7.825913429E-3,1.871049063E-1
1.555336229E1,1.383871857E-1,-3.906173944E-2,-3.648560241E-2,1.483510426E-1
1.556335029E1,9.562090628E-2,2.329530716E-3,-9.146507084E-2,1.323429016E-1
1.557333829E1,3.104056556E-2,4.225607336E-2,-8.474720478E-2,9.965531177E-2
1.558332629E1,2.478671260E-3,6.810135126E-2,-7.647573352E-2,1.024327861E-1
1.559331429E1,-2.611812361E-2,5.655660868E-2,-7.740090922E-2,9.935646488E-2
1.560330229E1,-3.493141249E-2,4.859679401E-2,-6.486827955E-2,8.825953579E-2
1.561329129E1,-9.569279049E-3,3.765782297E-2,-5.378722116E-2,6.635320559E-2
1.562327929E1,-1.488688314E-2,-1.293813407E-2,-3.442942902E-2,3.967871200E-2
1.563326729E1,-4.180419322E-2,-5.499891043E-2,-7.378455251E-3,6.947598377E-2
1.564325479E1,-6.352214087E-2,-6.851650357E-2,2.457000017E-3,9.346448786E-2
1.565324279E1,-4.943502892E-2,-5.676301539E-2,2.028983831E-3,7.529926145E-2
1.566323079E1,-4.943753226E-2,-3.143170774E-2,-1.049648300E-2,5.951636752E-2
1.567321979E1,-9.609168023E-3,-9.260820150E-3,-3.244912326E-2,3.508624375E-2
1.568320779E1,-7.548810225E-3,2.756494403E-2,-1.145308748E-2,3.078934699E-2
1.569319579E1,-1.491065573E-2,5.259219646E-2,8.237411231E-3,5.528220082E-2
1.570318379E1,-5.587471370E-3,5.593621910E-2,1.730249584E-2,5.881714720E-2
1.571317179E1,5.300077066E-2,5.091521502E-2,1.415084660E-2,7.484442043E-2
1.572316079E1,2.835744275E-2,4.798283637E-2,2.360930264E-2,6.053012734E-2
1.573314879E1,5.013746224E-2,3.102591097E-2,5.725768983E-2,8.218768349E-2
1.574313679E1,7.527244963E-2,2.469688475E-2,6.807489261E-2,1.044512747E-1
1.575312479E1,1.222676547E-1,7.172779441E-3,3.348159537E-2,1.269718291E-1
1.576311279E1,1.525657883E-1,-7.803694010E-3,1.948277637E-2,1.540025844E-1
1.577310079E1,1.363082630E-1,-2.876362324E-2,2.149977341E-2,1.409593163E-1
1.578308979E1,1.428188270E-1,-3.223686934E-2,1.811452791E-2,1.475281981E-1
1.579307779E1,1.786258601E-1,-4.514576733E-2,3.038359433E-3,1.842676581E-1
1.580306579E1,1.340165200E-1,-1.643886209E-2,-1.210198224E-2,1.355622432E-1
1.581305379E1,8.100854991E-2,1.611200273E-2,1.153231725E-2,8.339649952E-2
1.582304179E1,1.293925784E-1,5.194432497E-2,4.084791765E-2,1.452900706E-1
1.583302979E1,1.358985925E-1,4.827227354E-2,3.347340927E-2,1.480510350E-1
1.584301879E1,1.141693890E-1,3.561597526E-2,4.391127393E-2,1.274023039E-1
1.585300679E1,1.304823714E-1,2.486294568E-2,5.059069455E-2,1.421380797E-1
1.586299479E1,9.015112840E-2,-3.545166850E-3,5.743427575E-2,1.069508775E-1
1.587298279E1,-2.227259260E-3,-1.027998984E-2,7.956116304E-2,8.025345811E-2
1.588297079E1,-1.507403059E-2,-5.091346085E-2,9.112929448E-2,1.054701626E-1
1.589295979E1,-1.079671925E-2,-6.093500376E-2,3.929314300E-2,7.330480828E-2
1.590294779E1,-1.592967924E-2,-1.652423143E-2,-5.450189710E-3,2.359045300E-2
1.591293579E1,2.270753408E-2,2.297897279E-2,-5.730841443E-2,6.578692620E-2
1.592292379E1,5.745799351E-2,6.822823584E-2,-1.099808639E-1,1.416061567E-1
1.593291179E1,6.911277339E-2,4.259696603E-2,-1.325540400E-1,1.554401829E-1
1.594289979E1,-1.103011452E-2,5.351956487E-3,-7.486424088E-2,7.586146207E-2
1.595288879E1,-6.002583481E-2,-2.054185331E-2,-2.911489472E-2,6.980505481E-2
1.596287679E1,-8.143168733E-2,-1.549570620E-2,-1.266433820E-2,8.385476774E-2
1.597286479E1,-7.355508585E-2,-5.006386042E-3,-2.813285485E-2,7.891053210E-2
1.598285279E1,-1.532082329E-1,1.568983376E-2,-5.001269728E-3,1.540907077E-1
1.599284079E1,-9.544817587E-2,2.755734265E-2,2.886185646E-3,9.938858827E-2
1.600282979E1,1.648428764E-2,6.926553190E-2,2.440627813E-3,7.124185787E-2
1.601281779E1,8.564411284E-2,6.850422442E-2,-1.978858575E-2,1.114420520E-1
