Time (ms),Linear Acceleration x (m/s^2),Linear Acceleration y (m/s^2),Linear Acceleration z (m/s^2),Absolute acceleration (m/s^2)
18.986250270000003,-0.1055708939,-0.1241182619,0.6137851506,0.6350454848
28.97325018,-0.08151903011,-0.1028867295,0.3559492528,0.3793822637
38.961249869999996,-0.1069860663,-0.04675638288,0.0201810801,0.1184882007
48.94825025,-0.1420891676,0.04632661253,-0.05051818907,0.1577579602
58.93525016,-0.06181712933,0.04155119151,-0.03697135985,0.08315491834
68.92325031,0.04879852295,0.005998658538,-0.06000822008,0.07757748528
78.91025022000001,0.09939002149,-0.02834028482,-0.1235639459,0.1610887856
88.89824990000001,0.1101228051,-0.03572444111,-0.177444284,0.2118719939
98.88525028000001,0.07690477297,0.05024863243,-0.07771826684,0.1203303709
108.87325,-0.06603885558,0.01087289751,0.02819527388,0.07262454003
118.8602499,-0.182481843,0.01149445653,0.2125521362,0.2803750277
128.84825,-0.1377462944,0.07328139961,0.2056699634,0.2581556487
138.8352499,-0.2265090379,0.01330650866,0.0244325906,0.2282112156
148.8232501,-0.3499964949,0.03459768265,-0.1033413506,0.3665705674
158.81025,-0.1782593493,0.1064506075,-0.1135207683,0.2366328216
168.7982501,0.07234383512,0.1257250768,-0.05683259726,0.1557895039
178.78525009999998,0.1136529154,0.036536327,0.06756048381,0.1371725458
188.77325019999998,0.05444115914,0.02155283689,0.04999077022,0.07698988047
198.7602501,0.04842748057,0.05082926095,-0.03682576418,0.07927781247
208.7482503,0.05580809198,0.01856286317,-0.05187825143,0.07842497046
218.7352502,0.04365114592,-0.03288707972,-0.0262627691,0.06063592659
228.7232499,0.06468014538,-0.001753287613,0.006706756353,0.06505056345
238.7102502,0.1480425833,0.02450743496,-0.007427718043,0.1502411123
248.6982499,0.07551635161,0.03461463958,-0.1082547659,0.1364550731
258.6852503,-0.0224432582,0.07608864784,-0.1394730502,0.1604553331
268.67325,-0.05228865288,0.105813261,-0.1189633566,0.1675793234
278.6602499,0.019325267,0.08228932768,-0.07371409357,0.1121551024
288.64825,0.07014268734,0.04787466288,0.08568626761,0.1206404426
298.63525000000004,-0.01408378635,-0.02974537075,0.3328685385,0.3344915605
308.6232501,0.0152705884,-0.09071925849,0.3081178594,0.3215583773
318.61025,0.1339464813,-0.09421121567,0.1337503803,0.2114392992
328.5982502,0.1656628022,-0.1207955816,-0.01440870881,0.2055318649
338.5852501,0.08855849303,-0.110762929,0.07148747385,0.1588127578
348.5732502,0.01433532625,-0.07253704906,0.2764224422,0.286140685
358.56025009999996,-0.02661725655,-0.07430612415,0.2723364079,0.283543643
368.5482503,0.03331670389,-0.08643091053,0.07948003292,0.1220548266
378.5352502,0.08091497619,-0.08047289014,-0.07370590746,0.1358516846
388.5232499,0.02383266628,-0.08204228282,-0.0287735635,0.09014904386
398.5102503,0.00610211771,-0.07442686915,0.06393462539,0.0983068208
408.4982499,0.01860006608,-0.06540607721,0.136002143,0.1520542676
418.4852503,-0.04662293846,-0.06440824986,0.1410161304,0.1618878318
428.47325,-0.06488861689,-0.05436975002,0.04800973356,0.09732182097
438.4602499,-0.02523965254,0.001132605672,0.03846006095,0.04601629217
448.4482501,-0.04335472863,-0.009196208417,0.1141581148,0.1224592909
458.43525,-0.06002970859,-0.04066650778,0.08945304394,0.1151485034
468.4232501,-0.08325424617,-0.05993220627,-0.05159466147,0.1148265995
478.41024999999996,-0.05928168526,-0.03699884176,-0.09687374532,0.1194477084
488.3982502,-0.04025645351,-0.00841268152,-0.1231277436,0.1298144695
498.3852501,-0.05691058449,-0.003852730393,-0.1274903512,0.1396690653
508.3732503,-0.03634272935,0.03473041445,-0.1110169905,0.1218678294
518.3602502,-0.1003013466,0.03641587436,-0.06059761941,0.1227132736
528.3482503,-0.1295299514,0.02691911906,-0.1000020057,0.1658404306
538.3352501999999,-0.04334741961,0.02275414735,-0.1332200378,0.1419307172
548.3232499000001,-0.002234221101,0.009558443427,-0.1307612836,0.1311292068
558.3102503,0.007571486458,-0.01324686706,-0.1126068485,0.1136358624
568.29825,-0.0113960954,-0.04432394117,-0.110482555,0.1195862773
578.2852498999999,0.03592072483,-0.0247077021,-0.1719578415,0.1773986141
588.27325,0.1217515283,-0.02196389616,-0.236856088,0.2672202347
598.2602499000001,0.14423632,-0.01983317077,-0.2667575794,0.3039030715
608.2482501000001,0.09550535068,-0.0307908529,-0.1428463089,0.1745692316
618.2352500000001,0.05785202276,-0.02293424159,-0.00528237462,0.06245590009
628.2232502,0.09576094709,-0.04491334051,-0.01598277926,0.1069711007
638.2102500999999,0.1365913048,-0.04184413701,-0.09541778862,0.1717925224
648.1982502,0.1498928799,-0.03685675442,-0.1343239921,0.204619722
658.1852501,0.1740462111,-0.05768716782,-0.05358329952,0.1910263409
668.1732503,0.1695686692,-0.0904783532,0.08789885402,0.2113434989
678.1602502000001,0.1772655419,-0.08905280203,0.1151766998,0.2293886354
688.1472501,0.1562483099,-0.06293299735,0.1597722441,0.2321664629
698.1352502,0.1179341188,-0.06931230962,0.1908671522,0.2348253019
708.1222501999999,0.1473892849,-0.04792874962,0.2067212927,0.2583688433
718.1102503,0.1049617602,-0.02737315536,0.2573499942,0.279276351
728.0972502000001,0.1090699956,0.005144965053,0.2820878094,0.3024834985
738.0852499,0.06702444032,0.01353922784,0.257585637,0.2665069355
748.0722503000001,-0.02866034679,0.03194187731,0.2132438618,0.2175192948
758.06025,-0.1219000841,0.1101852241,0.156231755,0.2267350335
768.0472499,-0.1094446743,0.152205947,0.1508441305,0.2406215675
778.0352499999999,-0.06515475657,0.1855675283,0.1428036243,0.2430500462
788.0222499,-0.03500932664,0.2013208044,0.1662965673,0.2634582842
798.0102501,-0.06695025377,0.2032878077,0.1974429309,0.2911906252
807.99725,-0.1006967371,0.1860239035,0.2086456114,0.2971156622
817.9852501,-0.05851747245,0.1555692655,0.2070452285,0.2655067185
827.9722501,-0.01006254651,0.121235877,0.1929663026,0.2281126622
837.9602502,-0.02417107388,0.0934446457,0.1981258857,0.2203860459
847.9472501,-0.03656214612,0.0624152264,0.1807426983,0.1946801839
857.9352503,-0.02291235108,0.02501438856,0.1256420463,0.1301407671
867.9222502,0.007973445989,0.001575239897,0.1031706119,0.1034902526
877.9102498999999,0.06061322417,-0.03188720584,0.06921524584,0.09737303065
887.8972502,0.03370791916,-0.05479805857,0.07022389054,0.09523888828
897.8852499,0.0151170259,-0.08263577521,0.07821820378,0.1147836365
907.8722502999999,0.07509889696,-0.06487661183,0.07319252193,0.1233124663
917.8602500000001,0.01294460256,-0.05472584546,0.05313598752,0.07736868918
927.8472499,-0.02395940468,-0.0714021045,-0.07167224586,0.10396742
937.83525,-0.0363417609,-0.0567443043,-0.1238902205,0.1410298777
947.8222499999999,-0.07002811845,-0.02767867237,-0.08446361482,0.1131554175
957.8102501,-0.09995073292,-0.01695341706,-0.08309536636,0.1310816817
967.7972500000001,-0.1579285439,-0.01866694361,-0.06403636694,0.1714366824
977.7852502,-0.1680142966,0.004990013838,-0.1023069781,0.1967750539
987.7722501000001,-0.1337466527,0.04618627936,-0.1012591571,0.1739964264
997.7602502000001,-0.1610964557,0.02700741202,-0.07893273354,0.1814162197
1007.74725,-0.1372566997,0.04462975055,-0.1002756554,0.1757453365
1017.7352500000001,-0.03729167763,0.1142007995,-0.1428199965,0.186628088
1027.72225,-0.05578693237,0.1121823406,-0.1253923702,0.1772577386
1037.7102499999999,-0.09084391382,0.08934399337,-0.1210426265,0.1757449381
1047.69725,-0.05171398122,0.1022958684,-0.07224936604,0.1354944701
1057.68525,-0.0033397834,0.07530775219,-0.03357471228,0.08252074283
1067.67225,0.04078414188,0.03759847373,-0.06438018322,0.08498117113
1077.6602500000001,0.008268840015,0.02901359171,-0.01949929476,0.03592192527
1087.64725,0.007263447829,0.0081287992,0.02401685357,0.02637506979
1097.63525,0.02068551209,0.01648447037,0.03887170494,0.04701741824
1107.62225,-0.002022149898,0.02085701823,0.05043808222,0.0546178033
1117.61025,0.001180954836,0.03433601975,0.05217879832,0.06247386574
1127.59725,0.01131750517,0.002918052971,0.005834351778,0.01306294825
1137.58525,0.02898673106,-0.01927213043,-0.07961217999,0.08688926742
1147.5722500000002,0.01818798356,-0.07261130869,-0.1229236758,0.1439216278
1157.56025,0.011660956,-0.1264738128,-0.1342912477,0.184839775
1167.5472499999998,0.05156206325,-0.1459652138,-0.1159912169,0.1934384977
1177.5352500000001,-0.0011425802,-0.1888212115,-0.04081005692,0.1931844097
1187.52225,-0.04068101618,-0.2581098399,0.000716868639,0.2612970501
1197.51025,-0.09874244235,-0.3089993271,0.00894682467,0.3245161009
1207.4972500000001,-0.08635113258,-0.3018242088,0.00794578135,0.3140342442
1217.48525,-0.1392156631,-0.2680407509,-0.03481198311,0.3040373648
1227.47225,-0.2018584193,-0.275390701,-0.125226894,0.3636875508
1237.46025,-0.1788199511,-0.3061768761,-0.1875494421,0.4011179971
1247.44725,-0.223082131,-0.3309927517,-0.1696136928,0.4336941822
1257.43525,-0.2726442638,-0.3919517291,-0.08412973881,0.4848080707
1267.42225,-0.1691513242,-0.4279379793,-0.1527427214,0.4848437104
1277.41025,-0.1743946321,-0.4975828493,-0.2174252057,0.5703296412
1287.39725,-0.2153846736,-0.5135764459,-0.2192781883,0.5985267306
1297.38525,-0.2599684139,-0.5080389865,-0.1233230406,0.5838627924
1307.3722500000001,-0.2656231465,-0.4925103897,-0.07529868901,0.5646167129
1317.36025,-0.2410400997,-0.4492231598,-0.08158210695,0.5162919883
1327.34725,-0.2659760991,-0.446943769,-0.1987918836,0.5567946039
1337.33525,-0.2468872058,-0.4284092648,-0.3294321299,0.5941492395
1347.32225,-0.2261854128,-0.4014907305,-0.4395287687,0.636820372
1357.31025,-0.1746854214,-0.4038714243,-0.5387063169,0.6955800599
1367.29725,-0.09523773093,-0.3947925988,-0.5580945146,0.6902180153
1377.28525,-0.03769100592,-0.4048762684,-0.5022401565,0.6462124878
1387.27225,-0.009312970005,-0.3697252929,-0.4579679632,0.5886579473
1397.2586250000002,-0.005019213371,-0.3469315307,-0.4156639427,0.5414454661
1407.246625,-0.03294434588,-0.3110268492,-0.4292131108,0.5310809028
1417.2336249999998,0.004264703281,-0.1969910873,-0.3642406046,0.4141194203
1427.2216250000001,-0.04294787206,-0.1177370493,-0.2956726456,0.3211368024
1437.208625,-0.02678960323,-0.0003312447667,-0.2521366167,0.2535560412
1447.1966249999998,0.01581828978,0.1192992792,-0.1827167183,0.2187874207
1457.1836250000001,0.07934068646,0.220549373,-0.1798556757,0.2954404078
1467.171625,0.001178652495,0.2564528851,-0.1314559329,0.2881842011
1477.158625,0.02337318476,0.2454529569,-0.09602063656,0.2646004959
1487.146625,0.2576624548,0.241778128,-0.12608585,0.3751589601
1497.133625,0.3539595184,0.2092401271,-0.109942857,0.4256244862
1507.121625,0.3602861327,0.1869672056,-0.01415201604,0.4061565128
1517.108625,0.455218237,0.1407100287,0.1520685375,0.5001477737
1527.096625,0.4734736097,0.06818964422,0.4412297237,0.6507770399
1537.083625,0.4959169775,0.01901119843,0.655444808,0.822133183
1547.071625,0.5368191281,0.006166327447,0.6845043004,0.8699189256
1557.0586250000001,0.365169581,-0.01038947895,0.8117478991,0.8901637017
1567.046625,-0.903618255,-0.1246097204,2.374568895,2.543743495
1577.033625,0.8107700253,0.007962592095,1.553860137,1.752681592
1587.021625,1.51041474,0.2499485886,0.3257594937,1.565230409
1597.008625,0.6564435855,0.4210308096,0.2607758778,0.8223072309
1606.996625,0.2865259192,0.290546684,0.3631571156,0.5462577858
1616.983625,-0.1161755504,0.2508974455,0.1380439907,0.3090346745
1626.971625,-0.3142082461,0.2622123194,0.1306560338,0.4295964636
1636.958625,-0.06290010676,0.3798915544,-0.01127694011,0.3852287449
1646.946625,0.0837831451,0.5796068595,-0.4334634519,0.7285974822
1656.933625,0.2629386898,0.8799517228,-0.8335843259,1.240288119
1666.9216250000002,0.3244099563,1.050838501,-0.8493735623,1.389582247
1676.908625,0.07995694645,0.9797109959,-0.4924700439,1.09943326
1686.8966249999999,-0.2747276998,0.8207428171,-0.08131605864,0.8693137421
1696.883625,-0.6082019368,0.5722465307,0.1867770249,0.8557227032
1706.871625,-0.6438514604,0.2734511065,0.3109058118,0.7654950258
1716.858625,-0.448892646,0.06373552769,0.5576477873,0.7187056976
1726.8466250000001,-0.2249911373,0.08079931095,0.8318225598,0.8654931031
1736.833625,-0.05082831077,0.1472969171,0.9458362484,0.9585854723
1746.821625,-0.03277978331,0.1589272483,0.9856581259,0.9989265867
1756.808625,-0.1800639828,-0.05229837388,0.7977631134,0.8195023751
1766.796625,-0.2173084807,-0.2289824102,0.3556475365,0.4755429425
1776.783625,-0.0848488367,-0.227570271,-0.1644903624,0.2933336542
1786.771625,0.1002438977,-0.2440953065,-0.6433656299,0.6953780924
1796.7586250000002,0.3165985148,-0.4130239614,-0.9798021394,1.109430324
1806.746625,0.2261048857,-0.386326196,-0.9228379798,1.025671139
1816.7336249999998,-0.08938788403,-0.2110579168,-0.6946515584,0.7314891835
1826.721625,-0.08316326715,0.2435314156,-0.6714363581,0.7190622104
1836.708625,0.511763005,1.0685188,-0.6610242212,1.356682284
1846.696625,0.9839714965,1.541396651,-0.0970222646,1.831261003
1856.6836250000001,1.342114771,1.820042059,-0.07991681993,2.262788512
1866.671625,1.275455928,1.494051892,-0.4354269469,2.01210723
1876.6586249999998,1.173176285,0.5311197739,-1.043129824,1.657272048
1886.645625,1.136346136,-0.5915978543,-1.361697827,1.869623367
1896.633625,0.9445062261,-1.036381845,-0.9863206154,1.714353434
1906.620625,1.026701998,-1.260159612,-1.166403748,2.000654129
1916.608625,0.3316618559,-1.265664034,-0.9429424614,1.612775719
1926.595625,-0.3136300661,-1.118710787,-0.406553396,1.2309197
1936.583625,-0.2249153793,-0.9773973258,-0.1335480666,1.011794221
1946.570625,0.1890819242,-0.7812966963,-0.04915111005,0.8053523038
1956.558625,0.2850832284,-0.4724117553,-0.07859534919,0.5573352156
1966.545625,0.517646912,0.0929794997,0.3004667777,0.605709334
1976.533625,0.9308668647,0.4100145822,0.714581793,1.243081742
1986.520625,0.6848203424,0.4705540218,0.9539270407,1.265059994
1996.508625,0.2636201828,0.4427922459,1.089860771,1.205552601
2006.4956249999998,-0.1858906966,0.4831941672,1.299029124,1.398395015
2016.4836249999998,-0.3841690119,0.7369593796,1.367443301,1.600186282
2026.470625,-0.2646694291,1.100139446,1.128610854,1.598161183
2036.4586249999998,-0.0920847478,1.111477343,0.7783819324,1.360051439
2046.445625,-0.2020608791,0.9542417671,0.631036191,1.161728291
2056.433625,0.001002075719,0.7370025028,0.5408920062,0.9141869916
2066.420625,0.4446550592,0.5262861,0.4764065731,0.8376505259
2076.408625,0.2695927116,0.3024318807,0.4081596261,0.5750996027
2086.395625,-0.1803437355,0.3001916662,0.1973727643,0.4019886907
2096.383625,-0.340806755,0.2511314803,-0.1783207816,0.4593632178
2106.370625,-0.4012474863,0.04316648483,-0.1610293955,0.4345035752
2116.3586250000003,-0.3637039399,-0.1320992728,0.4861895496,0.6213783484
2126.345625,-0.2537266208,-0.2133135898,0.9728433681,1.027766561
2136.3336249999998,0.04250377603,-0.03474400923,0.6347135049,0.6370831582
2146.320625,0.3324793332,0.069813416,0.2452088356,0.4189794662
2156.3086249999997,0.2488213916,-0.3761676089,0.1500231814,0.4753115924
2166.295625,0.5873382673,-0.4691425771,-0.3293034911,0.8206715464
2176.283625,0.9368397224,-0.2679762854,-0.3101047432,1.022567801
2186.270625,1.033506257,-0.2032787445,-0.05427268624,1.054705151
2196.258625,1.674694311,-0.1371072668,-0.1087330681,1.683811841
2206.245625,1.905839862,0.09960746482,-0.2455403727,1.924171848
2216.2336250000003,-0.03331896968,0.3812342213,1.605023274,1.650014969
2226.220625,0.2470921507,0.7047296731,1.239552416,1.447131174
2236.208625,-0.2003386914,0.6753873217,1.162859166,1.359604746
2246.195625,-1.395743532,1.262488119,1.122720369,2.191455518
2256.1836249999997,0.7442553891,0.6493639961,0.8601529044,1.309752917
2266.170625,1.588232118,0.08412272215,-0.2785093135,1.614659509
2276.158625,1.007921838,0.1490901851,-0.8531578803,1.328914099
2286.145625,0.546112985,-0.3646059825,-0.539775188,0.8500200988
2296.133625,0.4375271206,-0.2532832557,-0.4686250985,0.689341622
2306.120625,0.6557529563,0.1562955628,-0.1142276967,0.6837310943
2316.108625,0.4311118479,0.1175930616,0.5180428416,0.6841446771
2326.095625,0.01439584494,0.02744324885,0.8945672768,0.8951038962
2336.083625,-0.4198805161,0.1296574755,1.154269021,1.235090151
2346.070625,-0.6368361904,0.1811539038,1.167774335,1.342413486
2356.057625,-0.4934678712,0.230175498,1.110511383,1.236821261
2366.0456249999997,-0.2994480465,0.2491030812,0.9658442509,1.041430072
2376.0326250000003,-0.1750817165,0.1687220655,0.6469926578,0.6911730912
2386.020625,-0.2305666767,-0.1610049833,0.7551328182,0.8057972265
2396.007875,0.03428485662,-0.3489330326,0.7384349245,0.8174447078
2405.995875,0.1797776154,0.01377530918,0.2022703922,0.2709669015
2415.982875,0.2856806311,0.3209943053,0.8204643434,0.9261816808
2425.970875,0.3716203755,0.4229982515,0.970993309,1.12243362
2435.957875,0.264573352,0.4200866304,1.052421634,1.163642184
2445.945875,0.3479379827,0.3980718635,1.425306762,1.520204399
2455.932875,0.4341206789,0.3080840917,1.420789788,1.517240981
2465.9208750000003,0.4242937021,0.3268710494,1.330761963,1.434502433
2475.907875,0.4003408755,0.527484633,1.145563102,1.32318845
2485.895875,0.4823103605,0.6613936921,0.7712459904,1.124671186
2495.882875,0.5313737623,0.6421901934,0.4635087848,0.9537330409
2505.8708749999996,0.6945448467,0.528749532,0.2995850176,0.9228866639
2515.857875,0.8060109034,0.3774016638,0.1720379484,0.9064671246
2525.845875,0.7691968337,0.2474334819,0.1791265279,0.827631204
2535.832875,0.6851195736,0.1720949587,0.3926767838,0.8082082414
2545.820875,0.482430667,0.08002784394,0.8416026127,0.9733646603
2555.807875,0.2739150099,-0.004768989086,1.192736683,1.223794497
2565.7958750000003,0.296453395,-0.103575897,1.308886945,1.346030318
2575.782875,0.3178046492,-0.2322372993,1.251114115,1.311571762
2585.770875,0.3897578537,-0.267214247,0.9559162635,1.066344476
2595.757875,0.5224598283,-0.2603235957,0.4116761416,0.7142897817
2605.745875,0.4499135698,-0.2060233545,-0.06381651163,0.4989392649
2615.732875,0.1823631079,0.05192597933,-0.4574955082,0.4952320168
2625.720875,-0.2521469955,0.2571288233,-0.7424139547,0.8251495739
2635.707875,-0.7431597671,0.3025898286,-0.7081334835,1.070186934
2645.695875,-1.167931918,0.3256432438,-0.5735270709,1.341283634
2655.682875,-1.048291453,0.2755315458,-0.223716225,1.106743671
2665.670875,-0.03260889843,0.02508444551,-0.1481696141,0.1537751742
2675.6578750000003,-0.3304384357,-0.1983073687,-0.3616871256,0.5285195825
2685.645875,-0.6721535191,-0.2712719954,-0.272735188,0.7744438853
2695.632875,-0.6236210445,-0.3255424158,-0.5799443901,0.9117107914
2705.620875,-0.6154587699,-0.3831431179,-1.085533832,1.305362726
2715.6078749999997,-0.66708793,-0.2925580713,-1.506605864,1.67345683
2725.595875,-0.5448631427,-0.09712223371,-1.779590144,1.863665649
2735.582875,-0.4026914562,0.003618019503,-2.081761385,2.120354678
2745.570875,-0.3619239378,-0.0778855703,-1.625510749,1.667135355
2755.557875,-0.5437425238,0.02539367186,-1.539919206,1.633294808
2765.545875,-0.1368308397,0.311190827,-2.268658862,2.293986801
2775.5328750000003,0.3002995473,0.1557460889,-1.942169051,1.971409974
2785.520875,0.5045904449,0.02412538338,-1.974117653,2.03772767
2795.5078750000002,0.8316750638,-0.01903385639,-1.61958518,1.820742117
2805.494875,0.998660287,0.07622263131,-0.9327776617,1.368651316
2815.4828749999997,1.121409277,0.2210836075,-0.4725860023,1.236840434
2825.4698750000002,1.213612705,0.2639610937,-0.4482668477,1.320406916
2835.457875,1.257572511,0.1708842014,-0.5180007416,1.370771607
2845.444875,1.380258644,-0.01953245487,-0.476079129,1.46018724
2855.432875,1.634460205,-0.2094016381,-0.3212530446,1.678842674
2865.419875,1.76417279,-0.3863013453,-0.05273194492,1.806741548
2875.407875,1.917279939,-0.5385418275,0.0977245152,1.993875559
2885.394875,2.084946217,-0.5903461482,0.07413450837,2.168180165
2895.3828750000002,1.938213995,-0.5413392451,-0.04955749154,2.013002139
2905.369875,1.434729989,-0.4746574881,-0.164535386,1.520138732
2915.357875,0.9749578674,-0.3745030894,-0.3426825052,1.099193662
2925.344875,0.7897885345,-0.2577363124,-0.4908544582,0.9649518305
2935.332875,0.5511794512,-0.2274088331,-0.4937692952,0.7741586928
2945.319875,0.4492652598,-0.2355060573,-0.3660128957,0.6255140418
2955.307875,0.4130367887,-0.2664002049,-0.1683875316,0.5195409693
2965.294875,0.263780762,-0.3076032678,0.06667112231,0.4106642172
2975.282875,0.08473331764,-0.3440504614,0.2168819994,0.4154374282
2985.269875,0.0543900691,-0.3721894192,0.2633404666,0.4591638539
2995.2578750000002,0.104541053,-0.3403833801,0.2548783761,0.4378957225
3005.244875,0.03304115385,-0.2890940894,0.1905414623,0.3478119596
3015.232875,-0.1069480594,-0.265135708,0.1736254674,0.334485626
3025.219875,-0.1585389201,-0.23009572,0.1779933375,0.3313008569
3035.207875,-0.2210000472,-0.2427568423,0.2027422625,0.3858449563
3045.194875,-0.3464277931,-0.2694900747,0.2279168648,0.4945535496
3055.182875,-0.4666608725,-0.3055055975,0.3068431664,0.6365993786
3065.169875,-0.4814644146,-0.3125329457,0.3847725177,0.6910388665
3075.157875,-0.3546915168,-0.2942391276,0.439429366,0.6367738248
3085.144875,-0.3120159057,-0.2998478134,0.4412110126,0.6180046879
3095.132875,-0.3809484386,-0.3621926904,0.4911082274,0.7193695496
3105.1198750000003,-0.4443033126,-0.3939389418,0.5330842191,0.7979800174
3115.107875,-0.39811601,-0.4599763356,0.5338735932,0.8093797627
3125.094875,-0.3950919762,-0.5091778779,0.4233296424,0.7710822052
3135.082875,-0.3735496643,-0.4605912069,0.3009561896,0.6650249917
3145.0698749999997,-0.2883494465,-0.394889224,0.12213781,0.5039846696
3155.057875,-0.2672870448,-0.2871171093,-0.1691605335,0.42719303
3165.044875,-0.2845377928,-0.1986903613,-0.4352620554,0.5566800446
3175.032875,-0.2190077546,-0.1430720846,-0.6721877253,0.7212976889
3185.019875,-0.1539007625,-0.05525048688,-0.7710694045,0.7882170307
3195.007875,-0.3076071051,0.06396404419,-0.7574477309,0.8200247527
3204.9948750000003,-0.5838284031,0.2393205433,-0.6392380804,0.8981955522
3214.981875,-0.7758892643,0.3816074198,-0.4438714957,0.9719312106
3224.9698750000002,-0.8564627266,0.4602650419,-0.1924102324,0.9911579129
3234.956875,-0.893947472,0.5070184281,0.1652697963,1.040924529
3244.9448749999997,-0.9649420255,0.4902915906,0.3698358053,1.14379958
3254.931875,-0.9806540787,0.4171322151,0.4646244335,1.162565083
3264.919875,-0.9112477751,0.407793225,0.5715974897,1.150387549
3274.906875,-0.9438008326,0.4310603924,0.5971486527,1.197146435
3284.894875,-1.091068806,0.4636325996,0.6066772753,1.331707041
3294.881875,-1.083617407,0.5039365069,0.4992604154,1.295160087
3304.869875,-0.9918747394,0.5618338821,0.34880454,1.192114683
3314.856875,-0.9052163722,0.5535110284,0.2200131834,1.083603682
3324.8448750000002,-0.925023669,0.4988253826,0.2134941226,1.072415633
3334.831875,-1.083748677,0.4815788738,0.3523900527,1.237177496
3344.819875,-1.159505934,0.4556328046,0.4370559812,1.320254973
3354.8068749999998,-1.038911642,0.4092442846,0.5424573058,1.241401713
3364.794875,-0.9238657741,0.4516620335,0.6315834904,1.206824041
3374.781875,-0.8355403657,0.4756213651,0.6255912638,1.147043075
3384.769875,-0.7518977,0.3725798305,0.4534445572,0.9538227549
3394.756792,-0.7374907453,0.3010782503,0.299000296,0.8508477474
3404.744792,-0.7658210899,0.277916552,0.2607407945,0.8553977516
3414.731792,-0.8927251115,0.2459758441,0.3211437017,0.9800997489
3424.719792,-1.070514527,0.2194968011,0.4579246938,1.184852406
3434.706792,-1.218016536,0.2020258324,0.5911780608,1.368893793
3444.694792,-1.304618916,0.1724360707,0.6231833804,1.456063954
3454.6817920000003,-0.988539049,0.1458620104,0.6078806323,1.169617049
3464.669792,-0.3722112367,0.08999953933,0.5030032182,0.6321814291
3474.656792,0.1324499595,0.0490963655,0.355606606,0.3826349476
3484.644792,0.3682297213,0.0916517432,0.2095156771,0.4334627881
3494.6317919999997,0.2392411673,0.1558731745,0.04348866642,0.2888322121
3504.619792,0.1732513918,0.1941353803,-0.1746919996,0.3134037099
3514.606792,0.03773953781,0.2056551991,-0.5096158344,0.5508417488
3524.594792,-0.1082383937,0.1646265294,-0.8614585876,0.8837015007
3534.581792,-0.1359498104,0.1635871869,-1.035917283,1.057529071
3544.569792,-0.1496131454,0.2093980019,-0.9818837482,1.015050398
3554.556792,-0.05235129118,0.2801314042,-0.8019210684,0.8510532658
3564.544792,0.1122180086,0.3010810277,-0.5915002424,0.6731383241
3574.531792,0.1894068101,0.3239690763,-0.3387824124,0.5055733627
3584.519792,0.04275586411,0.4002153797,-0.1446449125,0.4276944759
3594.5067919999997,-0.3426051758,0.456527794,0.002669253945,0.5707916066
3604.494792,-0.6882937346,0.5417323972,0.0837525934,0.8799072407
3614.481792,-0.9294548352,0.5672652876,0.03309874892,1.089390529
3624.468792,-1.029431113,0.6277848467,-0.002478634715,1.205756349
3634.456792,-0.7915622874,0.6653900447,-0.07391114473,1.036714823
3644.443792,-0.4675930649,0.6473774046,-0.304531762,0.854681445
3654.431792,-0.3502122572,0.6194899866,-0.6357016844,0.9542185809
3664.4187920000004,-0.2944562785,0.5860383582,-0.9197839791,1.129667219
3674.406792,-0.2074649124,0.5380230698,-1.043719223,1.192417851
3684.393792,-0.09182496697,0.5265286133,-0.9560343772,1.095292626
3694.381792,-0.04473514661,0.5126753899,-0.6829115188,0.8551055089
3704.3687919999998,0.01487414718,0.5537462327,-0.2999703491,0.6299510622
3714.3567919999996,-0.09505833104,0.5302334091,0.1259607196,0.5532175497
3724.343792,-0.6358273995,0.5525478458,0.2895494413,0.8907437807
3734.331792,-1.35240704,0.5674205312,0.3009573591,1.497179412
3744.318792,-1.903703728,0.5618762013,0.2490182966,2.000450664
3754.306792,-2.175388463,0.3445328566,0.2408918363,2.215636868
3764.293792,-2.18896219,0.09099159256,0.2221819156,2.202089858
3774.281792,-1.903288868,-0.08332881644,0.160776211,1.9118842
3784.2687920000003,-1.463640085,-0.2517694116,0.1392204505,1.491647569
3794.256792,-1.049700632,-0.2854645765,-0.01500512481,1.087927661
3804.2437919999998,-0.9922530542,-0.2208472887,-0.2989944488,1.059593002
3814.231792,-1.131480375,-0.1782380435,-0.533359623,1.263522508
3824.218792,-1.585212323,-0.1920769411,-0.8377896434,1.803242398
3834.206792,-2.179443215,-0.3123772636,-1.066314034,2.446339695
3844.193792,-2.527300506,-0.5322834429,-1.245773853,2.867494726
3854.181792,-2.570336013,-0.7320455258,-1.507505166,3.068401815
3864.168792,-2.266343657,-0.8524382342,-1.623819149,2.915433612
3874.1567919999998,-1.676072938,-0.9532291755,-1.652812568,2.539617243
3884.1437920000003,-1.564038386,-1.095090229,-1.627580663,2.508875743
3894.131792,-1.460239491,-1.34673948,-1.597120762,2.548882368
3904.1187919999998,-1.017937826,-1.722351019,-1.568741886,2.54236928
3914.106792,-0.2634840158,-2.035872729,-1.454146399,2.515699375
3924.0937919999997,0.6835289848,-2.160177224,-1.635106614,2.794127977
3934.0817920000004,1.310310595,-2.13715469,-2.183339215,3.324351689
3944.068792,1.658166279,-1.867750222,-2.612861643,3.614561144
3954.056792,1.754876448,-1.450711453,-2.620852448,3.471746336
3964.043792,1.691730174,-1.021265476,-2.231232589,2.980492077
3974.030792,1.62974004,-0.6361678536,-1.805526638,2.514097965
3984.0187920000003,1.300166553,-0.3311778161,-1.206211592,1.804177989
3994.005792,1.038049032,-0.09277309299,-0.5502867275,1.178544917
4003.993792,1.103783723,-0.06999701858,-0.09348002136,1.109944415
4013.980792,1.079591453,-0.3822099754,0.3642341727,1.20177731
4023.9687919999997,0.7317182279,-0.7388022758,0.9334845901,1.397366755
4033.9557920000007,0.05969451696,-1.021200426,1.446632727,1.771767477
4043.9437920000005,-0.8720227522,-0.826065976,1.581279486,1.985762697
4053.930792,-3.3599025,1.663489584,0.9212048525,3.860668438
4063.918792,-2.948872476,1.782581871,0.9157570016,3.565397298
4073.9057919999996,-0.2043297815,0.859676064,2.499177738,2.65078912
4083.8937919999994,1.854553787,-0.4083470294,3.673652397,4.135436976
4093.8807920000004,1.887010366,-1.141428828,3.822651731,4.41319999
4103.868792,0.6230243361,-0.5708192253,3.732606364,3.827054244
4113.855792,-0.7767558217,-0.4451078895,3.622691574,3.731670521
4123.843792,-1.25609682,-1.046689609,3.47074232,3.836585801
4133.830792000001,-1.166705537,-1.677625228,3.683035424,4.211932828
4143.818792,-1.188431671,-2.019443807,3.649732023,4.337172692
4153.805792,-1.079290175,-1.870614334,3.295952672,3.940478306
4163.7937919999995,-0.7510483919,-1.834617121,2.903530827,3.51573391
4173.780792,-0.345858859,-1.99131256,2.240104569,3.017119908
4183.768792000001,0.2358519018,-1.898852293,0.9539744031,2.138067658
4193.755792,0.3611752749,-1.130291929,-0.4127163613,1.256320906
4203.743792,-0.05490798622,-0.3313994256,-0.6729519564,0.7521335
4213.730791999999,-0.13787888,-0.01680899084,-0.6163421381,0.6317996192
4223.718792,-0.1468360835,0.3002156398,-0.7938296914,0.8613105391
4233.705792000001,-0.2433556337,0.7744977732,-0.8254783309,1.157792399
4243.693792,-0.5444342494,1.303183571,-0.7020903862,1.577221285
4253.680792,-0.588636203,1.578923496,-0.5886795455,1.784946944
4263.6687919999995,-0.3144922015,1.624305345,-0.4267023164,1.708609981
4273.655792,0.09394553281,1.791177571,0.2286641389,1.808156559
4283.643792000001,0.1200317891,1.745094202,0.7980847102,1.922680579
4293.630792,0.5547094153,1.37318936,0.8421054733,1.703670503
4303.618792,1.161998456,0.6074754202,1.323948787,1.863359114
4313.605791999999,1.592563881,-0.1221120822,1.654909379,2.29997742
4323.592792,1.469481307,-0.8118116337,1.993481877,2.606220143
4333.580792000001,0.8307278149,-0.7413684726,2.413700801,2.658136089
4343.567792,-0.2269712238,-0.7083641562,2.889826707,2.984023142
4353.555792,0.2342533462,-0.6701929477,1.928147428,2.05469845
4363.542791999999,0.1774417258,0.2569959453,0.9764569473,1.025183228
4373.5307920000005,0.1660739346,0.2568032795,1.467000918,1.498539346
4383.517792000001,0.6730580834,-0.02778918475,1.963801995,2.076125646
4393.506249999999,1.274761717,0.2058462569,2.419678994,2.742669603
4403.49325,1.163984609,-0.3284202692,2.483631161,2.762452495
4413.48125,0.9301212716,-0.3398954299,2.22940241,2.439444525
4423.46825,1.039978759,-0.1075893527,2.020506538,2.274989661
4433.45625,1.629387745,-0.2587337378,1.797397254,2.439771395
4443.443249999999,1.966408099,-0.3124307656,1.518715448,2.504170602
4453.431250000001,1.35378669,-0.09194951266,1.456034465,1.990283769
4463.41825,0.4981703483,0.4460770655,1.573723129,1.709901439
4473.40625,0.1761699381,0.832479056,1.340709831,1.587942089
4483.39325,0.2865179889,-0.2011184907,1.215460718,1.264865986
4493.381249999999,0.9437542011,-0.6788816178,0.8803690678,1.458287331
4503.36825,1.505099914,-0.8169260471,0.6094775069,1.81773396
4513.35625,1.523569221,-0.6586879662,0.2158587366,1.673836313
4523.34325,1.478351533,-0.5249744233,-0.1316512299,1.574310467
4533.33125,1.534882707,-0.6439749098,-0.1068227828,1.667926771
4543.318249999999,1.580349632,-0.7329369338,0.09766253471,1.744774908
4553.306250000001,1.270325873,-1.055871345,0.4333769131,1.7077493
4563.29325,1.171387549,-1.313486072,0.9319830251,1.991478549
4573.28125,1.318742719,-1.546134358,1.085356076,2.303825432
4583.26825,1.303412197,-1.764894775,1.275323342,2.537752263
4593.256249999999,1.358424263,-1.357798757,1.687775994,2.556857788
4603.24325,1.12500071,-1.240664264,2.073334377,2.665256058
4613.23125,0.8703231128,-1.317587017,2.18372747,2.694840168
4623.21825,0.5282881866,-1.137491898,1.906146694,2.281747454
4633.20625,0.1644684719,-0.9660683455,1.618678277,1.892209632
4643.19325,0.2889123141,-1.058028822,1.595843146,1.936391143
4653.18025,0.8412729029,-0.9270539685,1.606662249,2.036794722
4663.16825,1.146223179,-0.5693461655,1.553095322,2.012482972
4673.15525,1.73453954,-0.136938867,1.435525941,2.255684906
4683.14325,0.9487771055,0.3038945617,0.5682938129,1.146947147
4693.13025,0.621970814,0.8839455172,0.1064280957,1.086063677
4703.11825,0.9231043205,0.3769449963,-1.685480377,1.95832919
4713.10525,-0.6887300831,-0.09636459902,-4.318176361,4.373817823
4723.09325,-3.69381769,0.2458084676,-2.786843791,4.633703621
4733.080250000001,-2.041287396,0.2723730992,1.266692267,2.417757357
4743.06825,-0.3822313178,0.2068094395,-0.4505466771,0.6259898025
4753.05525,-0.3667689407,0.2754941967,-3.185594078,3.218450891
4763.04325,-0.2583925527,0.3217506427,-4.467938172,4.486954612
4773.03025,0.3338049701,1.290209768,-3.328557916,3.585437882
4783.018249999999,2.320071383,1.517600968,-2.616430784,3.81202754
4793.00525,2.011137252,1.094857802,-2.454853504,3.35703625
4802.99325,0.6294273296,0.8865022123,-1.974243953,2.253819895
4812.98025,-0.2559943172,0.6011133572,-1.970926827,2.076396618
4822.96825,0.08255303711,0.8806041259,-1.248893927,1.530364229
4832.95525,1.001645875,0.9660968506,-1.882711054,2.341204497
4842.94325,1.141146407,1.163594453,-2.252837466,2.780547396
4852.93025,1.135621373,1.350952983,-1.823879294,2.537960903
4862.91825,1.049267354,1.539193566,-1.704009034,2.524623854
4872.90525,0.6750639707,1.466307731,-1.826041594,2.437252065
4882.89325,0.3891076434,1.224594361,-2.168679661,2.520755358
4892.88025,0.3307658798,1.176397224,-2.123679489,2.4501696
4902.86825,0.6393000609,1.453660788,-1.600822635,2.254876352
4912.85525,0.6950947773,1.536353281,-1.276983951,2.115236669
4922.84325,0.5599638695,1.648928847,-0.9582136345,1.987636599
4932.83025,0.2988909531,1.843529447,-0.5579419023,1.949162843
4942.81825,-0.2060523713,1.726977482,-0.2902008212,1.763271198
4952.80525,-0.9582142192,1.618395272,0.04911778092,1.881433045
4962.79325,-1.551243508,1.701410531,0.3908840275,2.335368181
4972.78025,-2.240067732,1.748784088,0.5014420116,2.885756975
4982.76825,-2.549674877,1.937952039,0.2403597397,3.211584171
4992.75525,-2.368357982,2.021176629,0.02989213586,3.113706479
5002.74225,-2.331048653,2.147402812,-0.08465774238,3.170535222
5012.73025,-2.279569182,2.293833464,0.07295454025,3.234722551
5022.717250000001,-2.034628149,2.803859773,0.6301865906,3.521147039
5032.70525,-1.992172101,3.039449354,1.009431151,3.77173081
5042.69225,-2.577031075,3.028981669,1.32471945,4.191741969
5052.680249999999,-3.633117744,2.901081428,2.036118019,5.075588102
5062.6672499999995,-5.268099228,2.799276726,3.594239023,6.964723528
5072.655250000001,-4.703843502,2.909118426,3.788061942,6.703620439
5082.64225,-2.282148973,2.751152387,2.428267969,4.321287854
5092.63025,-0.9908036757,2.576932257,1.94919565,3.37959102
5102.617249999999,-1.25117785,2.232348822,2.249694588,3.407338113
5112.60525,-2.215975449,1.75721168,2.530141668,3.794727519
5122.592250000001,-2.658741236,1.360538324,2.736064816,4.050434566
5132.58025,-2.975662079,0.6940715146,2.734057467,4.100167107
5142.56725,-3.213680593,-0.0269866544,2.765797031,4.240059487
5152.555249999999,-3.163664095,-0.4729245561,3.099982654,4.454471978
5162.54225,-2.597467094,-0.5260938728,3.565024872,4.442185543
5172.530250000001,-1.709254571,-0.5055385709,4.029666262,4.406283084
5182.51725,-0.8294374806,-0.4479019815,4.615087739,4.710373399
5192.50525,-0.7429086292,-0.4716469395,4.929816168,5.007739162
5202.492249999999,-0.9448781821,-0.5296881562,4.712492411,4.835385098
5212.48025,-0.5496803713,-0.6434018826,4.268094959,4.351177894
5222.467250000001,-0.1167472619,-0.5857109141,3.716779121,3.764456698
5232.45525,-0.004819859862,-0.424880324,2.968687228,2.998941543
5242.44225,0.1288208851,-0.4787372732,2.249126531,2.303118396
5252.430249999999,0.5570934713,-0.5861330831,1.385883665,1.604549364
5262.41725,1.391770934,-0.5287064087,0.2279344064,1.506157659
5272.405250000001,2.394640924,-0.6946761167,-1.078792869,2.716739612
5282.39225,3.307412337,-0.812755959,-2.161379704,4.033746502
5292.37925,4.388635894,-0.7357159692,-2.796484973,5.255638039
5302.367249999999,5.316766189,-0.6100119424,-3.017597725,6.143778422
5312.35425,5.640800754,-0.4237278378,-2.899385151,6.356462277
5322.342250000001,5.647411616,-0.4111680186,-2.69220339,6.269790761
5332.32925,5.291501539,-0.3074559546,-2.484809375,5.853955529
5342.31725,4.824396717,-0.296937983,-2.148402978,5.289481185
5352.30425,4.566765764,-0.3547944278,-1.826894995,4.931406894
5362.29225,4.140869194,-0.5526197666,-1.56813553,4.462200727
5372.2792500000005,3.499818477,-0.7490622389,-1.239220586,3.787544227
5382.26725,2.837233926,-0.8415540808,-0.7172513393,3.045087701
5392.253625,1.953163278,-0.647342906,-0.3663681141,2.090006035
5402.241625000001,1.199590205,-0.4928840268,-0.1027990213,1.300968471
5412.228625,0.668758918,-0.2604753309,-0.0473846662,0.7192573914
5422.216625,0.2943371415,-0.03343671799,-0.08197913289,0.3073645152
5432.203625,0.04521301031,0.3708011806,0.06701669276,0.3795114872
5442.191625,-1.428211074,1.291873301,0.2634606269,1.943742525
5452.1786250000005,-5.005069249,2.694979355,0.1291202626,5.685974319
5462.166625,-10.02387478,6.041144407,-0.6812801456,11.7233798
5472.153625,-13.15076222,8.593068123,-3.501460083,16.09483114
5482.141624999999,-9.392486583,3.090559866,-5.261473163,11.20060107
5492.128625,-7.083497136,-0.3555224061,-3.578581349,7.944090402
5502.116625000001,-4.104524363,0.5760770416,-2.152585199,4.67039699
5512.103625,-2.019113731,2.249899825,0.1362405632,3.026124745
5522.091625,0.9471191275,2.129610904,3.148527993,3.917334013
5532.078624999999,4.414004624,2.40367341,4.45355636,6.715299467
5542.066625,6.276600087,1.199682006,4.455797013,7.790319158
5552.0536250000005,5.991985695,-1.32263141,4.1138764,7.387640046
5562.041625,4.961338508,-2.764949477,3.448411803,6.644649679
5572.028625,3.985989023,-3.657262652,2.907121602,6.141256761
5582.016624999999,3.275404387,-4.044510881,2.166485785,5.637375526
5592.003625,2.899793871,-4.383164654,1.227012331,5.396896899
5601.990625,3.079158965,-4.783587829,0.2295956004,5.693561855
5611.978625,3.920330638,-4.606739377,-0.3961892062,6.062013353
5621.965625,4.940948097,-4.111092541,-0.5852163859,6.454186873
5631.953625,6.042372907,-3.384749658,-0.722835284,6.963425266
5641.940625,6.861103551,-2.806185796,-0.5648212977,7.434274931
5651.9286250000005,6.332825743,-2.379982831,-0.6195475817,6.793588108
5661.915625,4.584997675,-1.906979923,-1.036891722,5.072861179
5671.903625,2.255938829,-1.388141275,-1.46569085,3.027283579
5681.890625,-0.1231406075,-0.6835781014,-1.941131755,2.061658342
5691.878625,-2.272278873,0.1205654937,-2.644994432,3.489094849
5701.865625,-4.046342229,0.7393470901,-3.445886098,5.365971539
5711.853625,-5.735500504,0.9047542959,-4.118941551,7.119004556
5721.840625,-7.151327761,0.8075203621,-3.854917252,8.164187951
5731.828625,-7.28831399,1.465191205,-2.66814122,7.89843552
5741.815625,-5.678604757,2.451709456,-1.126053428,6.286925128
5751.803625,-3.890911542,2.88128334,-0.02956922337,4.841679528
5761.790625,-3.202524106,2.556473435,1.939003222,4.533370773
5771.778625,-3.48102231,1.690054069,3.240870731,5.047478794
5781.765625,-5.616229584,2.348427747,1.939738948,6.389032385
5791.753625,-6.802616192,-0.1519124168,5.214048736,8.572337409
5801.740624999999,-6.272043936,-0.2674826342,5.141587701,8.114555206
5811.728625,-4.687215191,-1.48111025,2.469304898,5.501012679
5821.715625000001,-4.070943219,-2.153115542,1.385940968,4.809294917
5831.703625,-2.724017798,-0.0669120276,3.375499363,4.338057875
5841.690625,-1.937476076,-0.2027399236,1.250596637,2.314931742
5851.678625,-1.670326733,0.1921167022,1.3037718,2.127609252
5861.665625,-1.570653926,0.1990041375,0.02160085715,1.583358139
5871.653625000001,-3.35379713,-0.5437893015,-3.063859726,4.575029881
5881.640625,-1.792799004,-0.4386154336,-2.520241163,3.123800135
5891.627625,-0.08845726311,-0.04288874209,-1.815987892,1.818646792
5901.615624999999,0.8493814561,0.2883788288,-0.7015022293,1.138734642
5911.602625,1.481890561,0.2394885045,-0.04550778307,1.501807356
5921.590625000001,2.25795378,0.1034740824,0.1798089711,2.267464095
5931.577625,3.508470602,-0.06311952353,0.5493517212,3.551779463
5941.565625,5.240618484,-0.7026371008,0.6067083021,5.322205929
5951.552624999999,5.645641079,-0.3647750401,1.383892103,5.824215087
5961.540625,3.523100628,-0.3754286671,1.383632487,3.803632944
5971.527625000001,1.031547951,-0.1134055781,1.117220478,1.524838876
5981.515625,-0.4571867752,-0.2623932177,0.4424716723,0.6882231679
5991.502625,-1.068147428,-0.6512792516,0.106369048,1.255554844
6001.490624999999,-0.8058465967,0.008246912956,-0.8979007745,1.206516701
6011.477625,0.06861532152,-0.1402875674,-1.590485927,1.598134584
6021.465625,0.9571710759,-0.239586153,-1.93077926,2.168291157
6031.452625,1.553561345,-0.3185639101,-1.333388532,2.071946137
6041.440625,1.330621338,-0.5429432094,-0.4355146551,1.501670233
6051.427624999999,0.4563805903,0.05040066004,0.6375078893,0.78564609
6061.415625000001,-0.4044533685,0.948033632,1.042418218,1.46594203
6071.402625,-1.091993397,1.038211731,0.8615778708,1.735698593
6081.390625,-1.251956114,0.5496376866,0.3936216938,1.422825968
6091.377625,-1.094292084,0.4583100253,0.04415232539,1.187212143
6101.365624999999,-0.1838572177,0.2845769691,0.1770513511,0.3822756974
6111.352625,0.1927385536,0.3283223283,0.594042027,0.7055704296
6121.340625,0.1515816106,-0.06197054565,1.030871136,1.043797218
6131.327625,-0.3128950346,0.5062589478,0.8439450073,1.032688046
6141.315625,0.05774140075,0.3006176358,0.2236022226,0.3790817673
6151.302624999999,0.6481547919,-0.2538135982,0.00928303957,0.6961408993
6161.290625000001,0.7208090776,0.03140948832,0.1028080845,0.7287810265
6171.277625,0.9985604458,0.05464456916,-0.283484691,1.039457822
6181.264625,0.8986988463,-0.4131782913,-0.1036407189,0.9945437725
6191.252625,0.5123670955,0.1447220957,-0.08532958746,0.5392083679
6201.239625,-0.1105360571,-0.7368392193,-1.006595836,1.25235196
6211.227625,-0.1882043302,-1.13943522,-1.622128134,1.991239105
6221.214625,-0.004906617925,0.1517557114,-1.987176239,1.992968459
6231.202625,0.3137691933,0.3590161175,-1.395642668,1.474843089
6241.189625,0.4525794616,-0.1027197915,0.7654531538,0.8951525319
6251.177625,0.1938775181,0.1612989521,1.689974547,1.708689502
6261.164625,-0.2850132445,0.2239015818,1.323573396,1.372301353
6271.152625,-0.3776193264,0.4414402235,0.7652192652,0.9607426036
6281.139625,-0.3356047431,0.6892832297,0.3007877898,0.8235382255
6291.127625,0.0253458526,0.3092867178,0.0977455469,0.3253534662
6301.114625,0.3701161793,-0.3570146155,-0.0475039494,0.5164320353
6311.102625,-0.08283012204,-0.2521752083,-0.2633948275,0.3739384975
6321.089625,-0.5552854391,1.675431937,0.4481393784,1.821055462
6331.077625,-1.181278187,1.293016432,0.6663293999,1.873847517
6341.064625,-1.805233985,2.142925599,0.3947730106,2.829637007
6351.052625,-0.4890537716,1.953537208,-0.8826073819,2.198744415
6361.039625,0.4206668204,1.890967323,-0.5405423427,2.011194673
6371.027625,2.882682872,3.576093943,-0.1771384563,4.596703869
6381.014625,3.928445112,5.038714128,0.3908431335,6.401099859
6391.002624999999,2.197313476,4.063918959,0.465305086,4.643288989
6400.99,1.472506364,3.944609447,-0.08665109474,4.211380664
6410.978,0.9561571687,3.199791702,-0.9023031431,3.459343063
6420.965,0.6740997648,2.313934438,-1.430775079,2.802823648
6430.9529999999995,0.6878190138,1.513721341,-0.6856048194,1.798471924
6440.9400000000005,0.4095182267,0.6398134464,-0.212308892,0.7887594626
6450.927,-0.175582092,-0.7781164688,-0.05830266036,0.7998084209
6460.915,-0.5340277404,-1.856417879,0.7389850744,2.068229173
6470.902,-0.444003789,-2.721713995,1.059935964,2.954374838
6480.889999999999,-0.2456163865,-3.157202922,0.6690249664,3.236642104
6490.877,-0.006542741954,-3.216772601,-0.4629971534,3.249928482
6500.865,0.4229197526,-2.685778177,-0.5246706605,2.769033195
6510.852,0.2856554881,-3.332764403,1.142200953,3.534620296
6520.84,-0.07095574267,-3.574785336,0.3635839258,3.593927961
6530.827,-0.1114900303,-3.707784349,-0.06330436863,3.710000303
6540.8150000000005,0.1259213971,-5.007187695,-0.2996195527,5.017724254
6550.802,-0.2576053713,-7.441716278,0.1038891981,7.446898324
6560.79,-0.7968968484,-10.00903571,0.3018414581,10.04524508
6570.777,0.01656896263,-6.045180155,0.31792364,6.05355706
6580.765,-0.3314010336,1.613944956,0.05494157117,1.648533755
6590.752,-0.35657739,0.5621442962,-0.002639469691,0.6657030957
6600.74,0.5425540772,-0.02403205633,-0.005434402227,0.5431132471
6610.727,0.1227476746,0.2481686962,0.06839955926,0.2851897493
6620.714999999999,-0.05857945293,0.2386248708,0.08234750748,0.25914184
6630.702,0.04920928985,0.1883826703,0.06259795189,0.2045191635
6640.6900000000005,0.2692873773,0.03082418203,-0.02264802039,0.2719903575
6650.677,0.21389071,0.08087693274,-0.05129122753,0.234352521
6660.665,0.04438869908,0.1062012237,0.009250843339,0.1154756885
6670.651999999999,0.1264273274,-0.09163405538,-0.06135307968,0.1677643276
6680.64,0.05753923327,-0.0203354466,-0.01939930737,0.0640361373
6690.627,-0.1729859282,0.5214342266,0.08511144977,0.5559332181
6700.615,-0.1350521898,3.719456561,0.2658318921,3.731388857
6710.602,0.7388094386,2.957068518,-0.183796699,3.05350206
6720.589,1.21488294,1.622635088,-0.1695909252,2.034120515
6730.577,0.8048206296,-1.114544207,0.2697209118,1.400961958
6740.564,-0.1735816864,-2.178841537,0.2992095898,2.206129512
6750.552,0.301961326,-1.644389654,0.3253004873,1.703237618
6760.539,0.6525296056,0.02990266085,0.2493299166,0.6991812802
6770.527,-0.04991672985,0.9919555771,0.3238229324,1.044666855
6780.514,-0.2934998202,1.281229615,0.2962105894,1.347379747
6790.502,-0.1797743994,1.108934389,0.1617345697,1.134994442
6800.489,-0.4355322333,1.066824496,0.1162829838,1.158155673
6810.477,-0.6485538644,0.5487097335,-0.1553254366,0.863614774
6820.464,-1.020131336,-0.2259136087,-0.3499839234,1.101904555
6830.452,-0.5423266205,-1.194945762,-0.4015961266,1.372331223
6840.439,-0.2824453667,-1.591033226,-0.2611085844,1.636868903
6850.427,-0.1347166327,-1.5004926,0.03980199695,1.507053686
6860.414,0.4987189267,-1.546494985,0.2140595484,1.638959669
6870.402,1.125135562,-0.7025909078,0.09671530405,1.330006716
6880.389,0.5663683248,0.3195865881,-0.006969881058,0.6503516325
6890.377,0.4095643831,0.3416335148,0.214474719,0.574852892
6900.364,0.3604665193,0.3338210499,0.2135999572,0.5357215197
6910.352,0.1171264721,-0.3724828398,0.1210899707,0.4088090721
6920.339,-0.006383990049,-1.380634035,-0.06614019513,1.382232115
6930.327,-0.7034931332,-1.792542311,-0.6632005548,2.036650559
6940.314,-1.342768636,-1.289172472,-0.5568619215,1.94295869
6950.302,-0.8113958967,-0.4688379371,-0.01484374166,0.9372260395
6960.289000000001,0.594056645,1.282653412,0.09819930911,1.416949603
6970.276,0.9773591727,1.98208156,-0.2601157272,2.225205262
6980.264,1.053891039,1.518089796,0.3922405815,1.889215611
6990.251,0.982638039,0.9357094556,-0.5797361926,1.475541851
7000.239,1.151019431,0.1824793214,-1.455083123,1.864245512
7010.226000000001,0.417346479,-0.60025177,0.4964390973,0.8837035975
7020.214,-0.9356094682,-0.8263630146,0.947613802,1.567230942
7030.201,-0.8191940358,-0.3872622621,0.8741224873,1.259023848
7040.188999999999,-0.8648660526,-0.2162978625,0.7259464413,1.1496853
7050.176,-0.513037625,-0.1488584161,0.4612949558,0.7058041293
7060.164000000001,0.07009174347,-0.1369102156,-0.02978695907,0.156666916
7070.151,0.2023946455,-0.1780360222,-0.2765977856,0.3862211189
7080.139,0.06427756459,-0.1015684748,-0.1851403892,0.2207367756
7090.125999999999,0.06846183211,0.006271138787,-0.07530862927,0.1019693056
7100.114,0.08109181792,0.05544446826,-0.1463645055,0.1762740493
7110.101000000001,0.01795270622,0.09515524864,-0.1797235286,0.2041503557
7120.089,-0.0566697523,0.1062684667,-0.1334352154,0.1797481698
7130.076,-0.1100598013,0.1024093044,-0.007107290626,0.1505036181
7140.063999999999,-0.1055366877,0.08419171929,0.1356290907,0.191367417
7150.051,-0.07594129801,0.03394659519,0.1997356242,0.2163649039
7160.039000000001,-0.05162272811,-0.01498524427,0.1805794879,0.1884102308
7170.026,-0.001846551845,-0.0564624685,0.1385532101,0.1496275781
7180.014,0.01934580535,-0.03926697671,0.1085804558,0.1170720762
7190.000999999999,0.03106216371,-0.0126270622,0.06349732675,0.07180676304
7199.9890000000005,0.03519205213,0.04906691015,0.03644215029,0.07052710487
7209.976000000001,0.01718672097,0.05164845586,0.03902080894,0.06697439735
7219.964,0.02652092367,0.06126595616,0.04223209977,0.07899637351
7229.951,0.02127041638,0.03242865801,0.0931829828,0.1009312477
7239.938,0.02055588891,0.01811935186,0.1134793261,0.1167407938
7249.926,-0.003233215611,0.0003367996216,0.1351631407,0.1352022253
7259.9130000000005,-0.01471597771,-0.02152535498,0.1544916967,0.1566766902
7269.901,-0.02934980661,-0.02007466078,0.1517147809,0.1558261143
7279.888,-0.01621696025,0.01787201464,0.1352729952,0.1374088132
7289.875999999999,0.01953408341,0.01451337397,0.110924568,0.1135626621
7299.863,0.05666361272,0.03722746789,0.1068227462,0.1265217313
7309.851,0.08343567431,0.07897424877,0.1366739516,0.178544708
7319.838,0.09101454288,0.1053188789,0.1389544022,0.1966825848
7329.826,0.09233864486,0.102930876,0.1557487019,0.2082758957
7339.813,0.05112542242,0.07390705168,0.1671701048,0.1897943757
7349.801,0.02806517333,0.04338283181,0.1637138522,0.1716739626
7359.788,0.03178107888,0.02019160509,0.1496331722,0.1542978422
7369.776,0.04708967417,-0.02845313609,0.1429702699,0.1531911109
7379.763,0.0693547065,-0.04954930544,0.1190926532,0.1464522756
7389.751,0.07233970553,-0.05509538949,0.1296655154,0.1583719698
7399.737625,0.09854663372,-0.04779046297,0.127785124,0.1682985599
7409.725625,0.1120411304,-0.01762526214,0.1364658272,0.1774451655
7419.712625,0.09114698231,0.003525286317,0.1477907145,0.1736729551
7429.7006249999995,0.05387449086,-0.005876451731,0.1428720367,0.1528051449
7439.6876250000005,0.01191077828,0.01284048557,0.1424311566,0.1435039341
7449.675625,-0.004660230875,0.01298198819,0.1337445331,0.134453895
7459.662625,-0.04829741657,0.003550429344,0.1249316096,0.1339893767
7469.650625,-0.02306375742,0.02076989472,0.08989567816,0.09510288316
7479.637624999999,-0.01212917636,0.03005118012,0.08718194883,0.09301012068
7489.624625,-0.02460713456,0.02975355685,0.07222005688,0.08189335646
7499.612625,-0.01052206457,0.02702056825,0.05709104419,0.06403289996
7509.599625,0.009459333122,0.04567727923,0.03155976176,0.05631972464
7519.587625,-0.01174705625,0.001878125668,0.04339394152,0.04499505359
7529.574625,-0.02643555889,-0.009479506016,0.03995453618,0.04883712492
7539.5626250000005,-0.01704725574,0.02117861509,0.03660598196,0.04559759402
7549.549625,-0.03480145812,0.03306717396,0.03648604095,0.06029768375
7559.537625,-0.01792259306,0.01871986091,0.03971604288,0.04742379778
7569.524625,-0.0463462007,0.0001543664932,0.02584586263,0.05306602269
7579.512624999999,-0.04524545322,0.01254052341,0.0495920632,0.06829193582
7589.499625,-0.02631453523,0.03163752973,0.07335551307,0.08410956752
7599.487625,0.00129779865,0.04489726067,0.09233813323,0.1026829058
7609.474625,0.03551832676,0.04274840891,0.1063526666,0.1199994487
7619.462625,0.07983555277,0.0530459404,0.1125548813,0.1478383867
7629.449625,0.127181335,0.07415789723,0.09266323842,0.1739567804
7639.4376250000005,0.1263405054,0.05966966629,0.0784357933,0.1602328495
7649.424625,0.1283659717,0.04594625115,0.05263546586,0.1461484621
7659.412625,0.1595529735,0.06279207945,0.01127642848,0.1718346718
7669.399625,0.193136749,0.07594714522,-0.04552415527,0.2124669889
7679.387625,0.1992146373,0.05283076286,-0.07938530803,0.2208610159
7689.374625,0.2033445257,0.02487113178,-0.1036968613,0.229609687
7699.362625,0.1865542459,0.01212946415,-0.1031320202,0.2135083703
7709.349625,0.1525661447,0.02699776411,-0.08035704218,0.1745352743
7719.337624999999,0.1302385517,0.03833142221,-0.008652636632,0.1360376654
7729.324625,0.1472744145,0.04188360572,0.04199886896,0.1587699423
7739.3126250000005,0.1190291378,0.0205769366,0.07503965735,0.1422051199
7749.299625,0.0887876308,0.02873263299,0.09472781718,0.1329743093
7759.286625,0.04407719781,0.04809978068,0.132915471,0.1480638737
7769.274625,0.04440607628,0.0553263545,0.1736832087,0.1876133313
7779.261625,0.05563069294,0.04144798815,0.2135232856,0.2245103633
7789.249625,0.09813059519,0.03685733914,0.2355889233,0.2578569719
7799.236625,0.1482456279,0.03256840646,0.2179906315,0.2656263968
7809.224625,0.1917337096,0.02151073694,0.1863746633,0.2682536902
7819.211625,0.2116683295,0.00966427803,0.1491904648,0.2591421903
7829.199625,0.181559262,0.03085692644,0.09921021961,0.2091855234
7839.186625,0.186170961,0.01698557675,0.07231478177,0.2004434189
7849.174625,0.1760239953,-0.009315199256,0.07727731369,0.1924655893
7859.161625,0.1946935701,-0.005840198994,0.09814551473,0.2181106055
7869.149625,0.1879961693,0.0071797961,0.09318407916,0.2099461401
7879.136625,0.1372440916,0.001320886016,0.08747025311,0.1627535886
7889.124625,0.07630265594,0.005301085711,0.08623064339,0.1152645682
7899.111625,0.04259201417,0.03155625343,0.08094673388,0.09675872326
7909.099625,0.01231774449,0.03444828629,0.1033776033,0.1096601118
7919.086625,0.03725085676,0.03542009354,0.1223728681,0.1327302836
7929.074625,0.06686408957,0.01352519453,0.09861336507,0.1199096874
7939.061625,0.03994116982,-0.03679068089,0.05799626626,0.07945072779
7949.049625,0.04479142606,-0.05298045158,0.05264248252,0.08708863912
7959.036625000001,0.04730484257,-0.009870100021,-0.005859567896,0.04867752604
7969.024625,0.009492662251,0.04990189254,0.01475661814,0.05289676072
7979.011625,0.02109002978,0.1043388855,0.06604254663,0.125271746
7988.998625,0.02309183319,0.1222921765,0.08154241897,0.1487876852
7998.986625,0.05477877189,0.1005797106,0.09522373416,0.1489447937
8008.973625,0.08726151665,0.1026560569,0.08791471459,0.1608783247
8018.961624999999,0.09634808064,0.05818798184,0.1092903078,0.1568858351
8028.948625,0.08908993185,0.009535639286,0.09873199046,0.1333264802
8038.936625,0.07041392505,-0.0405925405,0.0742572999,0.1100909704
8048.923625,0.03087241243,-0.06632262826,0.07226917349,0.1028330215
8058.911625000001,-0.00888836165,-0.1077782178,0.07548163377,0.1318810989
8068.898624999999,-0.03110017975,-0.08113187134,0.08141129516,0.1190688906
8078.886625000001,-0.0326131468,-0.04567026258,0.1017560973,0.1162053939
8088.873625,-0.02221531729,-0.01548518121,0.1010668568,0.104631834
8098.861625,-0.03405039241,0.03951139033,0.08639019929,0.1009150421
8108.8486250000005,-0.03965815544,0.05941940546,0.09021902919,0.1150778357
8118.836625,-0.02580317795,0.03217781246,0.09278127909,0.1015361086
8128.823625000001,-0.01518081537,0.01792873263,0.1073017428,0.1098433458
8138.811625,-0.001683102753,0.0150156498,0.08843628623,0.0897177758
8148.798624999999,0.02550849656,0.03602118731,0.0490441791,0.06598136733
8158.786625,0.03635506332,0.04335710406,0.008372043371,0.05719807874
8168.773625,0.03883720636,0.03673981011,-0.05269861579,0.07506854435
8178.761625,0.01365967135,0.05557661533,-0.09650018133,0.1121946157
8188.748625,0.01047440062,0.06199393451,-0.07732540704,0.09966032089
8198.736625,0.01277704328,0.006034326553,-0.0788070184,0.08006380007
8208.723624999999,0.03852408797,-0.01571614623,-0.07246863663,0.08356318508
8218.711625,0.05929718038,-0.007022505999,-0.02220721342,0.06370738983
8228.698624999999,0.112949203,0.01281534255,0.04277179778,0.1214544447
8238.686625,0.1784204766,0.03927165449,0.09281051517,0.2049144237
8248.673625,0.2414268565,0.04135092437,0.1341754729,0.2792845923
8258.660624999999,0.2339675635,0.08717146039,0.1636202967,0.2985151349
8268.648625000002,0.1862241889,0.1016023886,0.1792704425,0.2777415804
8278.635624999999,0.1094171923,0.1224892277,0.1946327591,0.2546716391
8288.623625,0.0007069283724,0.1071794629,0.2354545105,0.2587020748
8298.610625,-0.05434315433,0.08528105557,0.2154534515,0.2380046777
8308.598625,-0.04669030935,0.06889189482,0.2425261331,0.2564078848
8318.585625000002,-0.01771473368,0.04705722213,0.2812276109,0.285687177
8328.573625,0.07179916698,-0.005209284425,0.2998840296,0.3084034504
8338.560625,0.1051312015,-0.03101246238,0.2959136239,0.3155617455
8348.548625,0.1167229959,-0.02515764534,0.2728310823,0.2978153193
8358.535625,0.1320631845,-0.04037619352,0.2422929753,0.2788849361
8368.523625,0.1028937462,-0.03710935414,0.1945731175,0.2232104953
8378.510625,0.08280856043,-0.02054945469,0.1491607171,0.1718384628
8388.498625,0.09424599747,-0.03031313539,0.1437244876,0.174521983
8398.485750000002,0.09639719725,-0.02432617128,0.1481590891,0.178424488
8408.473750000001,0.1197162039,0.01944199204,0.1481908102,0.1914953701
8418.46075,0.1705100709,0.05667706132,0.1466095769,0.2319058896
8428.44875,0.2422676861,0.1134383225,0.1468428808,0.3051634258
8438.43575,0.2644733829,0.1211964083,0.1354579134,0.3209105576
8448.42375,0.2775307819,0.1302671939,0.1523480344,0.3423489452
8458.410750000001,0.309118318,0.125833835,0.1700369581,0.3745675582
8468.39875,0.3076658696,0.1120858616,0.1894426243,0.3782988707
8478.38575,0.3102126244,0.09001379192,0.2186244696,0.3900397592
8488.37275,0.2968853581,0.06990697145,0.2305674076,0.382347002
8498.36075,0.2394852886,0.02493428171,0.2438359094,0.3426818824
8508.34775,0.2071896547,-0.002311404347,0.2463934084,0.3219357192
8518.33575,0.1703022024,-0.026059286,0.2093303204,0.2711108805
8528.32275,0.1496413765,-0.008864963651,0.193092164,0.2444498168
8538.31075,0.1292614728,-0.01595997512,0.1671391511,0.2118932396
8548.29775,0.1106082702,-0.06156942666,0.1130494827,0.1697208569
8558.28575,0.06504093686,-0.1007861173,0.05495695665,0.1319410171
8568.27275,0.0404799816,-0.1249362874,0.02139730096,0.1330622009
8578.26075,-0.02110813787,-0.103502149,-0.0210451524,0.1077086198
8588.24775,-0.1516527822,-0.07806383729,-0.02145387277,0.1719092717
8598.23575,-0.2374893232,-0.01777378142,-0.03181923196,0.2402697432
8608.222749999999,-0.2941716653,0.02605811656,-0.02472202778,0.2963564961
8618.21075,-0.3151424119,0.04464115262,-0.01653402552,0.3187176592
8628.19775,-0.3182794431,0.04713966787,-0.005740869418,0.3218025944
8638.18575,-0.3228967335,0.04122228563,-0.003254121691,0.3255336644
8648.17275,-0.2774126682,0.02474483192,-0.001261244416,0.2785169401
8658.160750000001,-0.2684673053,-0.00712775588,-0.03743738294,0.2711587295
8668.14775,-0.2758491227,-0.01911220908,-0.09357299209,0.2919142338
8678.13575,-0.3017938033,-0.04239582181,-0.1317108715,0.3320009926
8688.12275,-0.3332974318,-0.0483985734,-0.2000355864,0.3917190776
8698.11075,-0.4135071972,-0.05150987685,-0.2572498606,0.4897131409
8708.09775,-0.459506658,-0.09933016062,-0.3287339723,0.5736539672
8718.08575,-0.5589835837,-0.149056052,-0.3749860328,0.6894163317
8728.072750000001,-0.6272676605,-0.1583361679,-0.3505399936,0.7358079553
8738.05975,-0.6537306967,-0.03775137842,-0.3300345393,0.7332883386
8748.04775,-0.747178266,-0.2528096312,-0.3133544795,0.8487514953
8758.03475,-0.9149319595,-0.2387102401,-0.2610011418,0.9809203155
8768.02275,-0.9788402724,-0.190172503,-0.2231491182,1.021806923
8778.009750000001,-0.9746486959,-0.2330606604,-0.264448514,1.036431555
8787.99775,-1.05300694,-0.3064993501,-0.3332468534,1.146219409
8797.98475,-1.143691408,-0.3745077306,-0.3816242306,1.262506685
8807.972749999999,-1.21538295,-0.393694784,-0.3915283906,1.336205739
8817.95975,-1.210058767,-0.328102473,-0.3176540834,1.293366758
8827.94775,-1.132577313,-0.2255586827,-0.2364690024,1.178781438
8837.93475,-0.9747931221,-0.08290767074,-0.2167715601,1.002040529
8847.92275,-0.8630203789,0.0746964258,-0.1860339168,0.8859979395
8857.909749999999,-0.8556444088,0.1656562972,-0.1134815919,0.8788898877
8867.897749999998,-0.8381200111,0.1619491625,-0.06291253209,0.8559384738
8877.88475,-0.8718166378,0.08767841399,-0.01675651208,0.8763746544
8887.87275,-0.8190510714,-0.05223843992,-0.04849746443,0.8221468946
8897.85975,-0.8453477544,-0.2890319628,-0.0541932372,0.8950358698
8907.84775,-0.83525049,-0.4740770423,-0.05783605255,0.9621524994
8917.83475,-0.9250392372,-0.6295580149,-0.06224258736,1.120676146
8927.822750000001,-1.06933931,-0.7953066981,-0.06726856157,1.334362906
8937.80975,-1.197125311,-0.8864185971,-0.171515792,1.499421424
8947.79775,-1.342718642,-0.8022321403,-0.2531094472,1.584466519
8957.78475,-1.395145362,-0.4865304422,-0.2385780931,1.496683654
8967.77175,-1.276006297,-0.1256724519,-0.07735793218,1.284511535
8977.759750000001,-0.9887504259,0.2338476956,0.1051434624,1.021453522
8987.74675,-0.6108532105,0.4542035258,0.1621077682,0.778281065
8997.73475,-0.3067560428,0.5533828282,0.1729542071,0.655930623
9007.72175,-0.02163564809,0.5562198973,0.1997278766,0.5913881129
9017.70975,0.115443479,0.5472894448,0.2800545864,0.6255265818
9027.696750000001,0.110220015,0.5936292136,0.4004138196,0.7244827961
9037.68475,0.2950431197,0.6936791664,0.4825711463,0.8950509146
9047.67175,0.5227378634,0.6616077733,0.3104579151,0.8985342712
9057.659749999999,0.6037744251,0.4100067616,0.05128592849,0.7316278749
9067.64675,0.6124503775,0.006710849404,-0.2011566438,0.6446739453
9077.63475,0.523802349,-0.2871468204,-0.44102741,0.7425142246
9087.62175,0.3706887679,-0.4057219219,-0.6026279323,0.8155862096
9097.60975,0.2752721487,-0.3667443824,-0.5343856631,0.7041620799
9107.59675,0.3064897022,-0.1443689239,-0.2803003156,0.4397119405
9117.58475,0.4830859937,0.1610194552,-0.0500125511,0.5116645361
9127.57175,0.6365906073,0.5039539754,0.1891736524,0.833668928
9137.559749999999,0.8867875564,0.6967144561,0.3627893257,1.184659993
9147.54675,1.309640358,0.721650492,0.8314354742,1.710912695
9157.53475,1.665253981,1.046776732,0.3093159539,1.991102385
9167.52175,1.679405705,1.077094545,0.3173927128,2.020216403
9177.509750000001,1.619000166,0.7796548712,0.2190407914,1.810249189
9187.496749999998,1.594279308,0.3751491702,0.07578663915,1.639575258
9197.48475,1.4197522,-0.1585759038,-0.08146925569,1.430901767
9207.47175,1.128829832,-0.5380923593,-0.3727354395,1.304887691
9217.45875,0.8237735751,-0.8499629617,-0.6032747805,1.328525649
9227.446750000001,0.3889491838,-0.9064944273,-0.7830778313,1.25945405
9237.433749999998,-0.006433545202,-0.6491344929,-0.8178513689,1.044173282
9247.421750000001,-0.2460426486,-0.2592269504,-0.711131351,0.7958915724
9257.40875,-0.2616963758,0.07191022754,-0.5459640272,0.6096989363
9267.39675,-0.1132365936,0.3133020008,-0.3084347785,0.4539963462
9277.38375,0.007248647064,0.5547282726,-0.199451011,0.5895394007
9287.37175,0.2454082257,0.4204557359,0.112893362,0.4997530733
9297.358750000001,0.4875487348,0.4004442251,0.1302223165,0.6442182844
9307.34675,0.7045970875,0.3184498894,0.06250103429,0.775740786
9317.33375,0.9446679747,0.15652587,-0.106194938,0.9634185463
9327.32175,1.103918793,0.1032448715,-0.343611774,1.160760637
9337.30875,1.036898592,0.1642120349,-0.5244199611,1.173516331
9347.29675,0.9006616835,0.3875540382,-0.602394336,1.150768672
9357.28375,0.8390897718,0.6630929661,-0.5296565813,1.193440414
9367.27175,0.8299666536,0.8772519171,-0.4767024422,1.298330001
9377.258749999999,0.9239015883,0.9898154962,-0.4317040247,1.421160521
9387.246749999998,0.9309216093,0.9551713282,-0.3513300987,1.379275225
9397.23425,1.011014723,0.8456477165,-0.2872136249,1.348985729
9407.22225,1.124510202,0.696819706,-0.2289605927,1.342573592
9417.209250000002,1.150947803,0.5754952437,-0.1452122386,1.294975758
9427.197250000001,1.072874025,0.4290528971,-0.02045999229,1.1556659
9437.18425,0.9676063094,0.3040458584,0.1087254667,1.020062293
9447.17125,0.7794765311,0.2431342435,0.2186893737,0.8452946026
9457.15925,0.6219702293,0.1967933053,0.2949123614,0.7159244876
9467.146250000002,0.4357678396,0.04648302555,0.3533291155,0.562934939
9477.134250000001,0.3095479421,-0.1495770389,0.4363588469,0.5555198127
9487.12125,0.2361200698,-0.4578779161,0.478573405,0.7031624118
9497.10925,0.1755339986,-0.7320532733,0.4544397533,0.8793347878
9507.09625,0.1340367477,-0.8070438141,0.4300169568,0.9242294903
9517.08425,0.05568025723,-0.6681145549,0.2965671234,0.7330957701
9527.07125,-0.008627128154,-0.3795971471,0.1574589394,0.4110495579
9537.05925,-0.03089785695,-0.1285574681,0.1090926719,0.1714144428
9547.04625,-0.08943798736,0.01961916268,0.05808960244,0.1084364654
9557.034249999999,-0.2432089417,0.1191358495,0.0235641329,0.2718440882
9567.02125,-0.3915055865,0.2112259877,0.05420149639,0.448141545
9577.00925,-0.4412493119,0.2502339327,0.1246012419,0.5223441833
9586.99625,-0.4089118704,0.2879601681,0.1813467157,0.5319930521
9596.98425,-0.3282948464,0.2395475614,0.1035116507,0.4193747753
9606.97125,-0.2945300996,0.1280353117,-0.0671587801,0.3281026095
9616.95925,-0.2856680596,-0.02199605584,-0.1807105386,0.3387423291
9626.946249999999,-0.2897467849,-0.1126857859,-0.1394698343,0.3407390796
9636.93425,-0.2792048398,-0.1607399583,-0.1040149498,0.3385436257
9646.92125,-0.2838707717,-0.09301575243,-0.06412188247,0.3055260398
9656.90825,-0.2450041831,-0.04598367333,0.01852997258,0.2499698138
9666.89625,-0.1869907406,0.006219098568,0.0443185325,0.1922715439
9676.883249999999,-0.1250717966,0.06115719795,0.09102959946,0.1663416519
9686.87125,-0.05713299796,0.07532675564,0.06244110033,0.1133013265
9696.85825,-0.03084771708,0.1208484989,0.01442610428,0.1255549833
9706.84625,-0.03126316175,0.2125082821,0.01316018209,0.2151983867
9716.83325,0.05029482543,0.2390125412,-0.03096276104,0.246201659
9726.82125,0.1894698139,0.1929002291,-0.07985673979,0.281933339
9736.80825,0.2981754,0.1394344586,-0.1084659965,0.3465767012
9746.79625,0.3583928043,0.08049686372,-0.1067274731,0.3825126151
9756.78325,0.3815857852,-0.01824682117,-0.08334796607,0.3910083648
9766.77125,0.3599297449,-0.0610472703,-0.05573332071,0.3692998694
9776.75825,0.3350589055,-0.02545292974,-0.007261657119,0.3361027424
9786.74625,0.3115580687,0.008276149035,0.03590775132,0.313729647
9796.733250000001,0.2734573191,0.04759165764,0.03474298596,0.2797337061
9806.72125,0.272908558,0.03787709355,0.01126232207,0.2757545922
9816.70825,0.2218185112,0.06372061729,0.03335953474,0.2331879661
9826.696249999999,0.1542898947,0.06088120937,0.0816540277,0.1848763736
9836.68325,0.1092083006,0.01973786116,0.1101122801,0.1563353776
9846.67125,0.1051971106,-0.0005280035734,0.07990673348,0.1321052494
9856.65825,0.06880228624,-0.001965249181,0.05937189683,0.09089905901
9866.64625,0.08443335548,-0.06473335505,0.02354659125,0.1089671544
9876.633249999999,0.04726523682,-0.1436175567,-0.01470004633,0.1519081847
9886.62125,-0.02359439224,-0.09849751711,-0.08277435422,0.1308053896
9896.60825,-0.06035203636,-0.05320264578,-0.1387801552,0.1604145295
9906.59525,-0.03599852934,0.01161140084,-0.1392676668,0.1443128607
9916.58325,-0.05395459771,0.0334425652,-0.09431208014,0.1136849693
9926.570249999999,-0.02735225156,0.1009960324,-0.04945209548,0.1157318192
9936.55825,-0.02165911004,0.1468674392,-0.02135622427,0.149984166
9946.54525,-0.07218358487,0.1206444311,-0.01967821956,0.141960491
9956.53325,-0.1093699761,0.1075536847,0.008623327464,0.1536357658
9966.52025,-0.09720104322,0.08039687634,0.03083748445,0.1298562704
9976.50825,-0.04198227748,0.07130913377,0.01037398383,0.08339738438
9986.49525,-0.01794291213,0.02073013365,-0.06868271068,0.07395269625
9996.483250000001,-0.02125155911,0.06565721512,-0.08704998448,0.1110864459
10006.47025,0.0159571977,0.1085670072,-0.06611461356,0.1281115504
10016.45825,0.006037688702,0.1025660098,-0.1025316574,0.1451515787
10026.44525,0.003741340935,0.1278458619,-0.1163975984,0.1729362974
10036.43325,0.02842375383,0.0636124438,-0.1005231388,0.1223084389
10046.420250000001,0.06261710152,0.02248722196,-0.1144751801,0.1324052242
10056.40825,0.1225041381,0.03831914306,-0.08693815649,0.1550285897
10066.39525,0.1375731437,0.01348367929,-0.08810277566,0.1639215622
10076.383249999999,0.0885065259,-0.02539211869,-0.05026982859,0.1049057696
10086.37025,0.08358916372,-0.05724716485,-0.02396130502,0.1041082625
10096.35825,0.03763779625,-0.1410775262,-0.04869692758,0.1539183643
10106.34525,-0.05802309036,-0.2061891961,-0.03274674654,0.2166864394
10116.33325,-0.1497680967,-0.1900222296,0.03389850184,0.2443113565
10126.320249999999,-0.1800784546,-0.1138914818,0.1147089225,0.2419868929
10136.30725,-0.1466332582,-0.00764698863,0.1379375714,0.2014610693
10146.29525,-0.05617639348,0.05844876766,0.169404801,0.1878031742
10156.28225,0.003319610506,0.09031784713,0.1001801996,0.1349237033
10166.27025,0.04481744617,0.1057913339,-0.00348903358,0.1149460011
10176.25725,0.03443308353,0.1073396766,-0.06000763535,0.1277041883
10186.24525,-0.01125208944,0.1090511566,-0.05885339499,0.1244286397
10196.23225,-0.09170904592,0.08869875312,-0.07995965078,0.1505707929
10206.22025,-0.05413308397,0.1161935306,-0.05188307539,0.1382865895
10216.20725,0.1153056309,0.1593003738,0.04197014451,0.2010808062
10226.19525,0.246197015,0.1060427642,0.1279721618,0.2970436201
10236.18225,0.2705752265,0.06677637219,0.1790522683,0.3312548141
10246.170250000001,0.2431414063,0.01088576138,0.2416360407,0.3429638748
10256.15725,0.1805216736,-0.07069049835,0.2302235913,0.3009786092
10266.14525,0.1402900524,-0.1021485186,0.1658458932,0.2400426607
10276.13225,0.1097316264,-0.07948003292,0.1043191512,0.1709988034
10286.12025,0.05247992992,-0.0826626724,0.07472683132,0.1231720738
10296.107250000001,0.04994750082,-0.0953195554,0.03880329251,0.1143952184
10306.09525,0.07361512944,0.04998433828,0.05149014249,0.1028049421
10316.08225,0.2124221818,0.1002253693,0.1399190466,0.2733965025
10326.07025,0.2729550433,-0.01256566644,0.05203495681,0.2781546124
10336.05725,0.2099472016,-0.01487590134,-0.01378305674,0.2109243764
10346.04525,0.1918465608,0.0492715627,0.007730019093,0.1982234673
10356.03225,0.1525904015,0.0355627656,-0.02065938234,0.1580359168
10366.02025,0.05192108229,0.03860741079,-0.02272681162,0.06857724783
10376.00725,0.001129243523,0.05443874717,-0.002859142274,0.05452547183
10385.99425,0.01538036987,0.05485331476,-0.01328151181,0.05849649967
10395.98225,0.01337755233,0.09094408393,-0.01347724736,0.09290544389
10405.969130000001,0.01139870837,0.04846581638,-0.02061713621,0.05388814541
10415.95712,0.03222137421,0.04048144341,-0.01672479093,0.05437538826
10425.94413,0.01810561091,0.003116565943,-0.01105533063,0.02144169921
10435.93212,-0.03887097403,0.03993823707,-0.007425817698,0.05622417782
10445.919119999999,-0.06289045885,0.1020859534,-0.02979814187,0.1235503175
10455.90713,-0.08859028727,0.1204655063,-0.05035154343,0.1577829368
10465.894119999999,-0.04237228677,0.08160315692,-0.04044533685,0.100450541
10475.88213,-0.04133966848,0.009501725435,-0.08781246141,0.09752066117
10485.86912,-0.1179177283,-0.0566413933,-0.0953039141,0.1618507773
10495.857129999999,-0.09118820518,-0.08627742112,-0.08118157268,0.1494975916
10505.84413,-0.06333265454,-0.07728031039,-0.08407126665,0.1305804326
10515.832129999999,-0.07041217089,-0.09776193738,-0.05426450014,0.1321359383
10525.81913,-0.1106949551,-0.06922635555,-0.07616919324,0.1511535888
10535.807130000001,-0.069571926,0.00390009284,0.0009852558374,0.06968812195
10545.79413,0.009173404276,0.08168560266,0.04458268046,0.09351098559
10555.78212,-0.008181716502,0.08968459368,0.03222575963,0.09564918406
10565.769129999999,-0.00369441703,0.1173319834,0.002425278872,0.1174151823
10575.75712,0.01939579904,0.03736838579,-0.05204080403,0.06693906603
10585.744130000001,0.02643233836,-0.02341108203,-0.05366925359,0.06424278989
10595.732119999999,0.06558558673,-0.01618041515,-0.05614905775,0.08784071782
10605.71912,0.02334749356,-0.07409942508,-0.08697221652,0.1166190237
10615.70713,-0.07680098489,-0.07012682676,-0.08366093829,0.1334740263
10625.69412,-0.09677814335,-0.01010749698,-0.07310656786,0.1217076037
10635.68112,-0.07744242445,0.004959608316,-0.08071832702,0.1119704208
10645.66913,-0.04604053751,0.02405310631,-0.08978063419,0.1037248538
10655.65612,-0.01163785949,0.1030776411,-0.1184501173,0.1574511675
10665.64413,0.0008759129047,0.1391631478,-0.08654405415,0.1638811223
10675.63112,-0.01237680137,0.1114876914,0.00221141696,0.1121943889
10685.61913,0.003411850333,0.04198827088,0.0254926908,0.04923954608
10695.60613,-0.013262216,-0.001502149701,0.06750128075,0.06880818069
10705.59413,0.0116937004,-0.07260955453,0.06046123311,0.0952074091
10715.58113,0.03787051544,-0.09447989523,0.03962994263,0.1092298443
10725.56913,0.04705692977,-0.07390529752,0.008070327044,0.08798566826
10735.55613,-0.006323032826,0.01464025855,-0.004444907159,0.01655521411
10745.54413,-0.07541534096,0.03925001979,-0.01573836565,0.08646232624
10755.53113,-0.1257807715,-6.139576435e-05,-0.01646590546,0.1268539802
10765.51912,-0.09937343001,0.01772583425,-0.03233744144,0.1059952542
10775.50613,0.01203298509,0.031498366,-0.01823980451,0.03833575693
10785.49412,0.08120920077,0.00242425561,0.03720451757,0.08935875689
10795.48112,0.08339372054,0.04436224043,0.06968696997,0.1173831112
10805.469130000001,0.08573640749,0.09080024242,0.07583180889,0.1461022889
10815.45612,0.1432744713,0.1263478053,0.06000368848,0.2002293302
10825.44413,0.1685759582,0.1053907996,0.03336406633,0.2015892736
10835.431129999999,0.1051076482,0.09656267345,0.002387271971,0.1427503649
10845.41913,0.03311643675,0.03580542505,-0.02216226295,0.0535713799
10855.406130000001,-0.0409876661,-0.008187856078,-0.01339845613,0.04389246389
10865.39312,-0.0508482644,-0.02931910872,-0.01065245748,0.05965426203
10875.38113,-0.02577788875,-0.02239542067,-0.01928864881,0.03921869947
10885.368129999999,0.02920128733,-0.01686921716,-0.009740291834,0.03510212179
10895.35613,0.1043459022,-0.03259238005,-0.0173989749,0.1106935177
10905.343130000001,-0.0241903697,-0.09636035979,-0.08872959718,0.1332044832
10915.33113,-0.185443275,0.06542449594,0.05705859214,0.204756577
10925.318130000001,-0.3510098174,-0.01505307198,0.1031179869,0.3661527088
10935.30613,-0.4696973316,-0.05118886471,0.1715270479,0.5026503868
10945.29313,-0.3689930753,0.3177564096,0.2799098678,0.5616712202
10955.28112,0.112296069,0.1300151789,0.04129186749,0.1766900455
10965.26813,0.09762131184,-0.180178442,-0.02636275649,0.2066136162
10975.25612,0.07570814028,-0.1087693208,-0.07391129091,0.151741117
10985.24312,0.1125697187,-0.05897150874,-0.1653557503,0.2085476074
10995.23113,0.1124568674,0.03911670327,-0.136974535,0.1814901836
11005.21812,0.07788301215,0.07885496557,-0.01796951696,0.1122798856
11015.206129999999,0.07313711956,0.11375875,0.05186699554,0.1448456995
11025.19313,0.02743133515,0.09358994901,0.05707350254,0.1129997407
11035.181129999999,-0.01492531031,0.1281557643,0.04921250582,0.1380888683
11045.16813,-0.02587246746,0.09588848948,0.03991718709,0.1070390995
11055.15613,-0.07072090387,0.09577096045,0.05843239546,0.1326192593
11065.143129999999,-0.01762102291,0.09111248374,0.05086273625,0.1058253423
11075.131130000002,0.07262329549,0.09151886523,0.03667373657,0.1224532919
11085.118129999999,0.2077819777,0.04520657837,-0.00942863524,0.2128517891
11095.10612,0.3007361881,-0.02656507015,-0.07098972961,0.3101410962
11105.093130000001,0.3062711625,-0.05461182475,-0.06921948507,0.3187096068
11115.08013,0.2416879347,-0.01041389108,-0.04469319284,0.2460060739
11125.068130000001,0.1418291858,-0.002427763939,-0.02571254611,0.1441615309
11135.055129999999,0.009470589012,-0.003755666614,-0.02718268231,0.02902921469
11145.04312,-0.05555424973,0.06398315728,-0.01828146592,0.08668524139
11155.03013,0.07931353346,0.06910239458,-0.02339777961,0.1077647142
11165.018119999999,0.1786289299,0.0972853893,-0.01274985373,0.2038021107
11175.00512,0.2491481048,0.1111286724,-0.01227681398,0.2730843827
11184.99313,0.2747339125,0.1099832028,-0.001825646907,0.295936413
11194.98012,0.1907849988,0.05818739712,0.01605996251,0.2001065
11204.96813,0.08587147817,0.04675609052,0.04259097263,0.1066491149
11214.95513,0.01584069192,0.05435688615,0.005647825599,0.05689900286
11224.94313,-0.04730529025,0.04863129258,-0.03450953588,0.07611636598
11234.93013,-0.05840125903,0.05289800584,-0.1166099985,0.1407366258
11244.91813,-0.04640540376,0.04748582304,-0.1495035101,0.1635838147
11254.90513,-0.01674262494,0.03300226986,-0.1577730811,0.1620549611
11264.89313,0.01285978138,0.02754623294,-0.1297766125,0.1332896773
11274.88013,0.05347249478,-0.001781061888,-0.0766622597,0.09348573122
11284.868120000001,0.1133586542,-0.01850234449,-0.0281234993,0.1182516488
11294.85513,0.1179316154,-0.03323557377,0.02262872458,0.1245974657
11304.84312,0.08616325423,-0.06637408376,0.04515439197,0.1177647846
11314.83013,0.03956533089,-0.05848268151,0.05809574202,0.0914371625
11324.81812,-0.02550306961,-0.04980132043,0.05703008696,0.07989373502
11334.80512,-0.06620392978,0.02652472436,0.02760236621,0.07647491054
11344.79313,-0.08082489252,0.09029445827,0.04329746246,0.1286873059
11354.78012,-0.0388674657,0.08209139943,0.06125645444,0.1095537811
11364.76712,0.02987634838,0.08301818311,0.04989195228,0.101359863
11374.755130000001,0.07893273354,0.09382208347,-0.009719241858,0.122993591
11384.74212,0.1581794626,0.1221834183,-0.09032077074,0.2193339274
11394.73013,0.2225074594,0.1574748731,-0.1240207596,0.2994813082
11404.71738,0.2332463095,0.1449203163,-0.1155550146,0.2979239842
11414.70538,0.3139437327,0.1196293545,-0.08950099111,0.3476812867
11424.69238,0.4518125993,0.0731726414,-0.05703023314,0.4612388837
11434.68038,0.5288414794,0.01301414788,-0.02925245047,0.5298097623
11444.66738,0.5800972947,-0.01335387111,-0.02661652565,0.5808611165
11454.655369999999,0.5755638023,-0.01990275264,-0.1431657131,0.593435954
11464.642380000001,0.5191190216,-0.000676522851,-0.2067119372,0.5587618824
11474.630369999999,0.4156554642,0.02777310491,-0.2588726091,0.4904649203
11484.61738,0.3286132273,0.04375588417,-0.2920462024,0.4418056302
11494.605370000001,0.271240055,0.06483977437,-0.2392318118,0.3674332912
11504.592369999998,0.2183202682,0.06167058349,-0.1797540803,0.2894452103
11514.58038,0.1917762481,0.08107866168,-0.1449175389,0.2536788753
11524.56737,0.1666153868,0.1063819027,-0.1126830085,0.2275417692
11534.55538,0.1710776894,0.08354735613,-0.07323769167,0.2039889605
11544.542379999999,0.1548446493,0.04401666999,-0.08026136711,0.1798783469
11554.530379999998,0.1768781273,0.01154708147,-0.09529923633,0.2012489788
11564.51738,0.2043394294,-0.03016344666,-0.128595475,0.2433130332
11574.50538,0.2293758912,-0.09159370959,-0.150566534,0.289262836
11584.49238,0.2408238624,-0.1239779288,-0.2387103863,0.3610392057
11594.479379999999,0.2592769441,-0.130182994,-0.3218272412,0.4332954175
11604.46738,0.1717144512,-0.1306104255,-0.3197808619,0.3857521686
11614.45438,0.09501608491,-0.1061012363,-0.2889401615,0.3221365326
11624.44238,0.09393252276,-0.06711609542,-0.2216201444,0.2498867293
11634.42938,0.2886293089,0.063341133,-0.414422725,0.5089844517
11644.41738,0.4044595081,0.1656989819,-0.2802090991,0.5191924359
11654.40438,0.1815046636,0.06441000402,0.04802405924,0.198491566
11664.39237,0.08044394642,0.03504821062,0.06341480792,0.1082637679
11674.37938,0.2277229565,0.1030320328,-0.137991512,0.2855083222
11684.36737,0.1954040068,0.02730766654,-0.1921605563,0.2754162558
11694.35437,0.1776313949,-0.008410634995,-0.2807821262,0.332358622
11704.34238,0.1518665162,-0.05141398251,-0.322283324,0.3599630221
11714.32937,0.08699823663,-0.05360493422,-0.3451317577,0.359941818
11724.31738,0.06978608027,-0.0187520206,-0.3449703746,0.3524575075
11734.30438,0.02635157369,0.007665114999,-0.3705914117,0.3716061812
11744.292379999999,0.04244347662,0.03588202357,-0.3238462847,0.3285808644
11754.27938,0.02909070186,0.03836533606,-0.2657631142,0.2700892461
11764.26738,0.01534455568,0.03215617776,-0.2584165263,0.2608612203
11774.25438,0.04334533654,0.01916074097,-0.2376286514,0.2423083328
11784.24238,0.08174641371,0.01788663268,-0.1612597758,0.1816786258
11794.22938,0.1321230271,0.06331832886,-0.1637514205,0.2197276332
11804.21737,0.1390210605,0.09877818346,-0.1451161981,0.2239256478
11814.20438,0.2093240346,0.09782918036,-0.1073896703,0.2547933305
11824.19237,0.2756381844,0.007897834182,-0.08525079623,0.2886286243
11834.17938,0.3412322496,-0.07825211763,-0.07819379166,0.3587159198
11844.16738,0.3931084545,-0.1158789504,-0.1113030656,0.4246770073
11854.15437,0.3827276002,-0.1100744194,-0.1530954547,0.4266556129
11864.14138,0.3516105457,-0.08520387232,-0.1980891944,0.4124669741
11874.12937,0.3507443538,-0.04128134251,-0.2498421693,0.4326047394
11884.11637,0.3173204997,-0.0009536808729,-0.2792875779,0.4227230301
11894.10438,0.2467211448,0.05257465482,-0.2744668409,0.3727834015
11904.09137,0.2257765646,0.1021251297,-0.2934895876,0.3841103191
11914.079380000001,0.1650780076,0.05870546043,-0.2220117617,0.2828184965
11924.06638,0.1300455844,0.01176342845,-0.07296974301,0.1495821369
11934.05438,0.1020972823,-0.04213620543,-0.0293714413,0.1142890915
11944.04138,0.1509398787,-0.1366769117,-0.0654500775,0.2138858055
11954.02938,0.2577633192,-0.1485736567,-0.1639537342,0.3397011733
11964.016380000001,0.3256393334,-0.1711129189,-0.1920365953,0.4149682644
11974.00438,0.2634419158,-0.2400749803,-0.1617117655,0.3913928132
11983.991380000001,0.1721206865,-0.2966783667,-0.04849563718,0.3464035375
11993.97937,0.09540192805,-0.2546468264,0.06363977954,0.2792786344
12003.96638,0.03815622501,-0.1278967327,0.1042112701,0.1693323966
12013.954370000001,-0.02418766536,-0.04093635678,0.07813736603,0.09146735173
12023.94138,-0.1212879903,-0.05572396517,0.0410338591,0.1396413781
12033.92938,-0.2799378613,-0.05882182002,-0.05249308616,0.2908276755
12043.916369999999,-0.3442510208,-0.1542986655,0.02835665703,0.3783132875
12053.90438,-0.3501985162,-0.339228555,0.2393353075,0.543135713
12063.891370000001,-0.3411376709,-0.5226814377,0.4851750576,0.7905476788
12073.879379999998,-0.1312290609,-0.6642635787,0.633344087,0.9271417911
12083.86638,0.07310949147,-0.7027329952,0.551146853,0.8960700384
12093.85438,0.108995535,-0.5268545955,0.2742224273,0.6038656565
12103.84138,-0.04196225077,-0.06563148737,-0.08294392347,0.1137893539
12113.828379999999,-0.3999346402,0.3625928593,-0.5075558603,0.7409684537
12123.816379999998,-0.7604394588,0.6944586003,-0.7951523316,1.301079609
12133.80338,-1.077249862,1.035520257,-0.9038991407,1.746368554
12143.79138,-1.237270832,1.023742211,-0.9320657632,1.856780497
12153.77838,-1.25675317,0.8928025872,-0.9302262291,1.800512657
12163.766380000001,-1.258816068,0.7830298841,-0.8026929009,1.685843879
12173.75338,-1.238856597,0.6519838411,-0.5808802369,1.515674915
12183.74137,-1.205647555,0.5128528529,-0.3471722898,1.355408674
12193.72838,-1.121234226,0.4694805461,-0.1212902561,1.221593017
12203.71637,-1.042078202,0.4216719568,0.05828679979,1.125669387
12213.70338,-0.8965834699,0.3799497342,0.1814481649,0.9905287252
12223.691369999999,-0.7099528447,0.3804034781,0.2481020379,0.8427896944
12233.67837,-0.6108217818,0.3293338966,0.3936532688,0.7978263975
12243.66638,-0.4384662565,0.2007898772,0.464884927,0.6698411962
12253.65337,-0.2409905811,-0.1033179617,0.4917177996,0.5572588769
12263.64138,-0.1526223053,-0.5390413624,0.4594405845,0.724530751
12273.62838,0.04998082995,-1.007833691,0.398944999,1.085073244
12283.61638,0.1215858328,-1.040355905,0.2265275663,1.071652118
12293.60338,0.1576496683,-0.8212057704,0.0946971193,0.8415461245
12303.59138,0.1192741361,-0.4497537947,0.07366439223,0.4710957844
12313.578379999999,0.02912494462,-0.203348034,0.07432132691,0.218454446
12323.56638,0.0009978273511,-0.1022175157,0.09184806347,0.1374244627
12333.55338,0.005399026573,-0.06826273441,0.1816665584,0.1941434749
12343.54137,0.04640880246,-0.04945107222,0.2416867653,0.25102127
12353.52838,0.09440501433,-0.02948049188,0.2856168965,0.3022555503
12363.51637,0.1029524742,-0.06744237006,0.3444825706,0.3658085929
12373.50337,0.1056073659,-0.06437492073,0.3849742466,0.4043540734
12383.49038,0.1267381069,-0.03897286177,0.3985251689,0.4200044547
12393.47837,0.1397627798,0.06005909085,0.399726187,0.4276935276
12403.46475,0.1702867438,0.1826687711,0.3702079806,0.4465639976
12413.452749999999,0.2300589922,0.2419063282,0.4194067454,0.5360483464
12423.43975,0.3153148682,0.2768510431,0.4668308803,0.6276950191
12433.42775,0.4171318862,0.3317107898,0.5020489526,0.732177717
12443.41475,0.475028969,0.3820594096,0.5296834785,0.8075806469
12453.402750000001,0.6112728579,0.385173052,0.6008625117,0.9397066269
12463.389749999998,0.7357691789,0.3081342316,0.653751162,1.031355211
12473.37775,0.8358928066,0.1152965677,0.6936791664,1.092337342
12483.36475,0.9264258313,-0.1547886622,0.697789759,1.17010038
12493.35275,0.8191963747,-0.495474928,0.7102191854,1.192052598
12503.339750000001,0.5809331542,-1.025769441,0.7152983692,1.378890145
12513.32775,0.2625528467,-1.36454776,0.7127206242,1.561696281
12523.314750000001,0.09911469072,-1.527209698,0.7793689424,1.717442614
12533.30275,-0.1196863831,-1.379398518,0.7228833774,1.56193005
12543.28975,-0.3625908127,-1.353454422,0.7398894194,1.584533788
12553.27775,-0.5060855779,-1.211485196,0.6869428816,1.481792669
12563.26475,-0.4604325646,-0.8503377682,0.6025804237,1.139375107
12573.25275,-0.224599447,-0.4320881867,0.819732272,0.9534705609
12583.23975,0.1091614132,-0.2105822092,1.118903891,1.14376877
12593.22775,0.3824798244,-0.01059690893,1.084212653,1.14974788
12603.21475,0.4267596191,0.2242091453,0.64600097,0.8060463799
12613.202749999999,0.3752941811,0.6191640043,-0.3104649317,0.7877805916
12623.18975,0.219505645,1.034965941,-1.119817227,1.540560888
12633.17675,-0.0189405933,1.176983115,-1.486916535,1.896462175
12643.16475,-0.2528064518,1.198656405,-1.573772538,1.994354101
12653.151749999999,-0.2711874666,1.146251904,-1.337884164,1.782517912
12663.139749999998,-0.1991544475,1.076572389,-1.122666282,1.568135895
12673.12675,-0.2017266377,1.043832659,-0.8580230561,1.366193186
12683.114749999999,-0.2519562666,0.9941096914,-0.699202154,1.24121702
12693.10175,-0.3200266277,0.9652501738,-0.5846329799,1.172996446
12703.089750000001,-0.4723056284,0.9748600727,-0.4933319235,1.190294566
12713.07675,-0.6065579921,0.9565120947,-0.4506606978,1.218984434
12723.064750000001,-0.71697155,0.8878722149,-0.4574782589,1.229492428
12733.051749999999,-0.9123816964,0.7821475393,-0.4834875512,1.295359157
12743.03975,-1.099679416,0.6973044401,-0.4650375393,1.382674297
12753.02675,-1.366686964,0.6735781932,-0.3931685346,1.573569934
12763.01475,-1.470261033,0.7035118443,-0.2478342354,1.648641328
12773.001750000001,-1.471681907,0.6900182247,-0.09195331335,1.628013574
12782.98975,-1.443978969,0.6556471217,0.1872404167,1.596874254
12792.97675,-1.368912122,0.6016773212,0.510532093,1.580056649
12802.96475,-1.318736287,0.5100356644,0.7831509215,1.616331383
12812.95175,-1.361886984,0.4190600055,0.9067122361,1.688927034
12822.93975,-1.34544286,0.3874727619,0.9451725894,1.689290636
12832.92675,-1.274440997,0.4073532951,0.9742759359,1.655098233
12842.91475,-1.071457829,0.4940984935,0.9014941809,1.484872708
12852.901749999999,-0.7322456467,0.7141625476,0.9022455481,1.363913069
12862.88975,-0.451898261,1.050533568,0.8449492666,1.421890319
12872.87675,-0.4039341357,1.505482029,0.6071231255,1.672793297
12882.864749999999,-0.3722124061,1.939783972,0.556764273,2.052142877
12892.85175,-0.4475809693,2.160027536,0.4167564949,2.244935111
12902.83875,-0.5512722757,2.014369301,0.3418244264,2.116229841
12912.82675,-0.58978847,1.452559465,0.5400114155,1.658128996
12922.81375,-0.4378904154,0.5705221868,1.021923727,1.249628619
12932.801749999999,-0.6545878986,-0.9654174042,2.046820763,2.355841955
12942.78875,-0.04578896105,-2.301090444,2.948329269,3.740288671
12952.776749999999,0.7778366795,-3.49615315,3.611692961,5.086496121
12962.76375,1.580148634,-4.661619004,4.078283229,6.392179248
12972.751750000001,2.017228297,-5.298705894,3.399150766,6.61057638
12982.738749999999,1.824173701,-4.337481528,1.369317626,4.900651636
12992.72675,0.8233666089,-1.653854542,-0.8104308137,2.017415555
13002.713749999999,-0.3762425995,1.109340186,-2.354411788,2.629724132
13012.70175,-1.328906057,3.178441764,-3.419772141,4.854206923
13022.688750000001,-2.160810478,4.293535025,-3.582002555,5.994521434
13032.67675,-2.741995939,4.392248889,-2.658940626,5.820683575
13042.66375,-2.799011847,3.379750873,-1.306845389,4.578758364
13052.65175,-2.404814787,1.719048073,0.3883685553,2.981457793
13062.63875,-1.530385321,0.07289314449,1.966676778,2.493032329
13072.62675,-0.9565027392,-1.221594447,2.531637386,2.96923868
13082.61375,-0.4466563784,-1.663362699,1.772955308,2.471770198
13092.60175,0.3521017849,-1.472647575,-0.07269726276,1.515899547
13102.58875,1.246227158,-1.232973713,-1.736751688,2.46771407
13112.57675,1.680658178,-1.153936315,-2.451636951,3.188527038
13122.56375,1.594519921,-1.058637809,-2.322115277,3.009223679
13132.551749999999,1.250705687,-0.7544288135,-1.954512523,2.439989089
13142.53875,0.9461727557,-0.1082980353,-1.720960697,1.966895287
13152.526749999999,0.5749149075,0.5651123428,-1.202517321,1.44773168
13162.51375,0.05488240466,1.145593507,-0.1573789787,1.15765483
13172.50075,0.1131538555,1.370190323,0.4773520678,1.455366041
13182.488749999999,0.4366196327,1.426876155,0.6722567225,1.636624993
13192.47575,0.8481908168,1.299167118,0.04662628233,1.552236088
13202.463749999999,1.831641911,0.8805023843,-0.6724251223,2.140642914
13212.45075,2.213079323,0.236522212,-0.9733696175,2.429220299
13222.43875,2.55870327,-0.4873040289,-1.106497269,2.829975945
13232.42575,2.657268615,-1.051910003,-1.081791029,3.05579171
13242.413750000002,2.29258713,-1.243341411,-1.255886613,2.89466834
13252.400749999999,1.394379669,-1.105826009,-1.783632908,2.519621435
13262.38875,0.2002620198,-0.8259086859,-1.711853074,1.911196217
13272.37575,-0.7121391186,-0.4475996804,-0.7864756483,1.15153443
13282.36375,-0.9150768243,-0.3142626983,0.1016368872,0.9728600592
13292.350750000001,-0.4430264269,-0.4978980142,0.1050709569,0.6746960452
13302.33875,0.2641975223,-0.7939290941,-0.4590953064,0.9544067464
13312.32575,1.070872523,-1.093280223,-1.009733452,1.833464276
13322.31375,1.224353967,-1.077481631,-1.092681468,1.963151062
13332.30075,0.9305693876,-0.7971152419,-1.057657231,1.618638598
13342.28875,0.6959609693,-0.4307433271,-1.625711893,1.820121052
13352.27575,-0.3721059137,-0.01588103771,-1.401869368,1.450500859
13362.26375,-1.646894893,0.2940535516,-0.44924918,1.732211046
13372.25075,-2.087776123,0.2767943251,0.7219668263,2.226355842
13382.23875,-1.608075521,0.02639842451,1.012747691,1.900595076
13392.22575,-0.7812311344,-0.3002065766,0.6477118653,1.058289532
13402.21367,-0.373370301,-0.5423888934,0.7768645799,1.018385815
13412.20067,0.3327325176,-0.9007735115,0.7898032987,1.243339494
13422.188670000001,1.136587553,-1.08318559,0.2487235969,1.589649557
13432.175669999999,1.432536845,-0.7605935329,-0.4652138329,1.687331693
13442.16267,1.284791154,-0.3236679447,-0.6040916365,1.456151075
13452.150669999999,0.6960589832,0.196882183,-0.2445036614,0.7635723558
13462.13767,0.2253392659,0.5829036659,0.1386193568,0.6401326382
13472.125670000001,-0.04047303803,0.7350505561,-0.01983200133,0.7364310525
13482.112669999999,-0.4189965633,0.8999519777,0.1923371422,1.011170242
13492.10067,-0.5849647363,0.8806900799,0.7956329727,1.323189551
13502.087669999999,-0.241719802,0.6487175864,1.12341151,1.319589478
13512.07567,0.08606399775,0.4561740375,1.217361647,1.302870348
13522.062670000001,0.8538769417,0.1258735961,0.7736398405,1.159080927
13532.05067,1.203068787,-0.0325450176,0.3159765172,1.244296927
13542.03767,1.119500965,0.3601335204,0.1575193119,1.186503644
13552.02567,0.9595728198,0.5388045502,0.185972448,1.116098603
13562.01267,0.3741721735,0.6099470383,0.8122741485,1.082510738
13572.00067,0.6860016992,0.28480618,0.7145239055,1.030658674
13581.98767,0.4569253316,0.2075919431,0.1358097696,0.5199225587
13591.97567,0.1525620425,0.07409006953,0.1165718454,0.205799685
13601.96267,0.3427938947,-0.04351205528,0.1895871967,0.3941373598
13611.95067,0.4028043075,-0.2843226153,0.425909434,0.6515285916
13621.93767,0.9083382006,-0.3004188305,0.4961660689,1.077733978
13631.925669999999,1.356229657,-0.4137811393,0.1859788799,1.430091556
13641.91267,1.518218727,-0.349617303,-0.193580845,1.569934363
13651.900669999999,1.371707091,-0.1323903179,-0.4263994306,1.442540819
13661.88767,0.7821604031,0.1784236926,-0.2004483998,0.8269156373
13671.875670000001,0.3039903098,0.4944499111,0.2463847107,0.6305523362
13681.862669999999,0.2228642857,0.5469988382,0.7123329538,0.9253617973
13691.85067,0.6942643265,0.1767315084,0.7132486278,1.010920663
13701.837669999999,0.9460942568,-0.1778413099,0.8182166737,1.263408247
13711.82567,1.20423918,-0.3930492514,0.7234420788,1.458783109
13721.812670000001,1.505734044,-0.3349980944,0.3140001583,1.574183863
13731.799669999999,1.405255637,-0.2134110922,0.3609737653,1.466488922
13741.787670000002,1.053704659,-0.3114361542,0.563520146,1.234844501
13751.774669999999,0.6760753928,-0.2306217867,0.5557643992,0.9050626568
13761.76267,0.3715646808,-0.1712608534,0.3931311125,0.567399915
13771.749670000001,0.1685895529,-0.02759301066,-0.1910794061,0.2563106534
13781.73767,-0.4559673384,-0.04754604936,0.09074410915,0.4673342849
13791.724670000001,-0.5531423615,-0.2875420922,0.5612198514,0.8388174107
13801.71267,-0.5595991494,-0.5173517007,0.2724896049,0.8093544186
13811.69967,-0.5730247951,-0.7229304475,0.1866057014,0.9411734885
13821.68767,-0.3401762424,-0.866865508,0.4533597726,1.035717514
13831.67467,-0.00195735544,-0.8468083888,0.330498662,0.9090201561
13841.66267,0.2093642342,-0.6720348206,-0.02088508487,0.704201938
13851.64967,0.1780489592,-0.4510828668,-0.3214530194,0.5818154589
13861.63767,-0.006377046481,-0.3173476893,-0.3148515129,0.44708131
13871.62467,-0.08765553676,-0.1831748477,-0.2378951383,0.3127788592
13881.61267,-0.07356667064,0.05089270324,-0.1817133361,0.2025385366
13891.59967,-0.1416870984,0.1459055722,0.07305686653,0.2161040851
13901.587669999999,0.02158455804,0.06718216896,0.1647827232,0.1792559144
13911.57467,0.1094529334,-0.07717915356,0.2175322098,0.2554541616
13921.56267,0.2576732721,-0.2261992452,0.2597216249,0.4301359507
13931.54967,0.5542973328,-0.2459414917,0.2473091555,0.6549004267
13941.537670000002,0.8110533229,-0.09829520345,0.1926932377,0.8394046244
13951.524669999999,0.8168623124,0.2317579007,0.0464625603,0.8503731719
13961.51267,0.6728505072,0.6473598629,-0.1873833811,0.9523209169
13971.49967,0.5218669937,0.9060032612,-0.0406574446,1.046346069
13981.48767,0.5317701305,1.046307786,0.02227906108,1.1738977
13991.474670000001,0.4682272685,1.048788467,0.0520291096,1.149739558
14001.46267,0.3597748668,0.9645338899,0.1381164962,1.038672107
14011.44967,0.1233104691,0.799821918,0.2657694,0.8517945446
14021.43667,-0.05902084462,0.6239397177,0.170432303,0.6494854897
14031.42467,-0.02845839858,0.5823815095,-0.0989880985,0.5914192648
14041.411670000001,0.1365086581,0.5791596937,-0.2017131525,0.6282903473
14051.39967,0.2781649125,0.6574007016,-0.2292962229,0.7497520649
14061.38667,0.4371386462,0.7997377181,-0.5099637437,1.044381939
14071.374670000001,0.4092559791,0.8724726954,-0.6630263078,1.169744821
14081.36167,0.4097736769,0.8612442872,-0.4631655532,1.060272851
14091.34967,0.3783981755,0.8394005513,-0.188798992,0.9399061252
14101.33667,0.3694493043,0.8717897406,-0.1736669827,0.9626371908
14111.32467,0.4587469585,0.8318398091,-0.1566404754,0.96277852
14121.311670000001,0.3983792078,0.806258533,-0.06588057876,0.9017200596
14131.29967,0.2766259253,0.8512826782,-0.2530394268,0.9301790432
14141.28667,0.2094747466,0.7914618614,-0.4207539439,0.9205028131
14151.274669999999,0.1879884949,0.7135553142,-0.5075804186,0.8956219861
14161.26167,0.1989131402,0.6589110374,-0.6160421759,0.9237089125
14171.24967,-0.1141207292,0.7644018245,-0.4738870078,0.9065884327
14181.23667,-0.6126310199,0.6847545612,-0.1697972953,0.9343643278
14191.22467,-0.6329724234,0.6269975191,0.3166255581,0.945532507
14201.211669999999,-0.398854221,0.7954452771,0.2139472818,0.9152001518
14211.19967,-0.361151009,0.8019029421,-0.06463102877,0.8818478041
14221.18667,-0.4427995184,0.7846808454,0.04593046367,0.9021668638
14231.17467,-0.4384537581,0.3219775146,0.2977139086,0.6201167545
14241.16167,-0.718719502,-0.02855253875,0.2700396216,0.7683061677
14251.14967,-1.032868618,-0.5912558287,0.05620811462,1.191453058
14261.136670000002,-1.30484301,-0.784285866,-0.767964533,1.705136102
14271.124670000001,-1.523853542,-0.7226372096,-1.141291126,2.03638886
14281.11167,-1.387296937,-0.9376209104,-1.303147902,2.121772895
14291.09967,-1.078107137,-1.131766012,-1.292088479,2.027979768
14301.08667,-0.6913190109,-1.570514177,-0.8919108868,1.933892909
14311.073670000002,-0.7611759156,-1.676624477,-1.064021925,2.126640794
14321.061670000001,-0.8277412033,-2.017358397,-0.7410755271,2.303059561
14331.04867,-1.170997101,-1.985877573,-0.03310693502,2.305653923
14341.03667,-0.4062017591,-1.931599624,-0.1802158642,1.982058207
14351.02367,-0.6934403808,-1.205437128,-0.4720539057,1.468595629
14361.01167,-0.71844154,-0.8431866235,-0.7891548425,1.360105619
14370.99867,-0.4900797752,-1.299024154,-0.6724871027,1.542686242
14380.98667,-1.254986872,-1.156601475,-0.01528111339,1.706737395
14390.97367,-1.786092832,-0.893319481,0.2278221399,2.009987619
14400.96317,-1.138499665,-1.579388496,-0.3833873123,1.984347586
14410.95017,-1.317232383,-1.036600238,-0.7249758035,1.826261515
14420.93817,-0.9723877238,-0.854134073,-0.9334103304,1.595724834
14430.92517,0.1653314844,-1.946357996,-1.304650052,2.348990359
14440.91317,-0.1635925955,-1.894308714,-1.300090978,2.30334639
14450.90017,-0.08922544107,-2.006225591,-1.006950177,2.246519744
14460.88817,-0.1504012039,-1.852398796,-1.021358886,2.120654567
14470.87517,0.1657782847,-1.745032807,-0.1427299494,1.758690926
14480.863169999999,-0.07951913618,-1.764529178,1.133531286,2.098756701
14490.85017,-0.3500715586,-1.565154912,1.305173378,2.067785661
14500.838169999999,-0.4015339268,-1.611109934,1.236170971,2.070029802
14510.82517,-0.1510855474,-1.858838919,0.3938321936,1.906098834
14520.81317,0.2092521869,-2.147594893,0.8814011014,2.330840665
14530.800169999999,0.7111844876,-2.577207077,1.488468971,3.059954177
14540.788170000002,1.153873457,-2.554251785,1.632656046,3.243638682
14550.775169999999,1.443996656,-2.411846356,1.486607217,3.179957579
14560.76317,1.515867561,-1.937892836,0.9046367669,2.621383373
14570.75017,1.657843951,-0.9332758445,0.3481098908,1.93407106
14580.73817,1.999705068,0.1505048458,0.2504046714,2.020934083
14590.725170000002,1.450369537,0.6249986485,-0.5988145244,1.689015671
14600.71317,0.8232303688,1.37521659,-0.7437441963,1.766942087
14610.70017,0.4088529597,1.578907855,-0.123185631,1.635629988
14620.68817,0.03213629723,1.548856529,0.2668207294,1.571999552
14630.67517,-1.023921282,0.7754130086,0.2746963441,1.313445167
14640.66317,0.1524393971,2.568468997,0.686630348,2.663030604
14650.65017,0.6850375664,2.948063806,0.626233288,3.090715904
14660.63717,-0.9878208648,1.845826672,0.2285811085,2.105971388
14670.62517,-1.013068557,1.650077533,0.6016896003,2.027583325
14680.61217,-0.9168669493,1.355503579,0.9654431319,1.900030367
14690.60017,-1.144818166,1.131732829,1.098681881,1.94898171
14700.58717,-1.129969162,0.8046607813,1.331778209,1.923003505
14710.57517,-0.7558989497,0.4023300983,1.499149495,1.726470949
14720.56217,-0.4617258225,0.1462531891,1.602961546,1.674534696
14730.55017,-0.2765158515,0.09791484207,1.238212234,1.272484919
14740.53717,-0.3423623702,0.223311013,0.961379317,1.044667407
14750.525169999999,-0.1338234705,0.143901439,0.8714538181,0.8933353807
14760.51217,-0.1065090796,-0.1764828555,0.867239145,0.8914000881
14770.50017,-0.1480686034,-0.406432651,0.6357747746,0.7689742356
14780.48717,-0.1403521791,-0.6161659907,0.3144597495,0.7058641486
14790.47517,-0.222299737,-0.6856886539,-0.1021508574,0.7280253435
14800.462169999999,-0.3170927507,-0.6483557899,-0.2601835549,0.7672082671
14810.45017,-0.3160868834,-0.5204106715,-0.3180078399,0.6869258848
14820.43717,-0.2060507633,-0.3283433783,-0.2469501364,0.4596201268
14830.42517,0.01549205169,-0.1615451199,-0.1798393035,0.2422374961
14840.41217,0.4129509808,-0.04735893846,-0.1444028378,0.4400267732
14850.40017,0.5733218336,0.03656249329,-0.09080316603,0.5816183936
14860.38717,0.7765669566,0.08099709302,-0.0501311034,0.7823873048
14870.375170000001,0.9127524099,0.0290717715,-0.05439196944,0.9148336548
14880.36217,0.9252867937,-0.03644627988,-0.1342187423,0.9356808498
14890.35017,0.8245652881,-0.01411839455,-0.09032954156,0.8296183879
14900.33717,0.708337259,0.003763121814,0.04952474713,0.7100764284
14910.32517,0.7191458371,0.03443542242,0.1386526859,0.733199223
14920.312170000001,0.7317179355,0.05386440441,0.2300487596,0.768918034
14930.30017,0.7318962756,0.1066994065,0.2623277289,0.7847756105
14940.28717,0.6606877139,0.1540320325,0.2434423918,0.720762319
14950.27417,0.7222398913,0.1925004257,0.1476492119,0.7618970825
14960.26217,0.7492291769,0.1744608884,0.1263109678,0.7795738719
14970.249170000001,0.5802104384,0.1466823748,0.07590095222,0.6032585071
14980.23717,0.4298925573,0.1468936054,0.02809177816,0.4551642452
14990.22417,0.333772518,0.1614797772,0.05214663863,0.3744316816
15000.212169999999,0.2300917366,0.1461964712,0.09175275385,0.2876355042
15010.19917,0.2412675199,0.05198101625,0.1820910662,0.3067070241
15020.18717,0.2840226531,-0.1286694422,0.2210919946,0.3822386204
15030.17417,0.3488437164,-0.2607239838,0.1620351166,0.4646765684
15040.16217,0.3587641025,-0.2768703389,0.1273780847,0.4707377638
15050.149169999999,0.3083526251,-0.3128750078,0.06768678367,0.4444700357
15060.13717,0.223126241,-0.3592820196,-0.0008612948656,0.4229298179
15070.12417,0.2492355207,-0.4210074207,-0.08664521098,0.4968631458
15080.11217,0.1157950428,-0.4334450331,-0.2648718524,0.5209992197
15090.09917,-0.09771954507,-0.3427753298,-0.2806850624,0.4536828633
15100.08717,-0.2392651409,-0.163549253,-0.1487508273,0.3257652137
15110.07417,-0.41240412,-0.09670417607,0.05358213007,0.4269659243
15120.062170000001,-0.5050918436,-0.07619477481,0.106658476,0.5218231929
15130.04917,-0.5346872333,-0.109449352,0.1046967351,0.5557256557
15140.03717,-0.2948967201,-0.2939743218,0.02661535621,0.4172449575
15150.02417,-0.2993511289,-0.3423525761,-0.00985840559,0.4548775362
15160.01217,-0.2579355928,-0.3777292541,-0.04644735754,0.459747231
15169.999170000001,-0.08879640162,-0.3930711785,-0.01456658363,0.4032393057
15179.98717,-0.04589947343,-0.383581586,-0.03691171825,0.3880774017
15189.97417,-0.1540302783,-0.2397906594,-0.04239348292,0.2881355486
15199.962169999999,-0.1101863936,-0.04599916846,-0.06276459754,0.1348938825
15209.94917,0.0008987170458,0.1003010908,-0.08840229928,0.1337014698
15219.93717,0.0005528542399,0.1501336938,-0.01793750346,0.1512024659
15229.92417,-0.1216396272,0.0688689445,0.08432094276,0.1632456793
15239.91217,0.03301922679,-0.002132333368,0.1363617468,0.1403187164
15249.89917,0.4447117406,-0.1379470731,-0.04635906458,0.4679178241
15259.88617,0.2832297707,-0.1259317759,-0.2191770315,0.3796267724
15269.87417,0.2551245439,-0.1540780793,0.06563791931,0.3051834266
15279.86117,0.1512320933,-0.2049779454,0.1996777368,0.323663873
15289.84917,-0.2719607243,-0.09288024321,0.1671479219,0.3324572197
15299.83617,-0.3502584502,-0.01346643001,0.1301777315,0.37390984
15309.82417,-0.3326133075,0.03828055143,0.0370134598,0.3368486443
15319.811169999999,-0.1987389663,0.09005662277,-0.06934914708,0.2289468852
15329.79917,-0.002090671957,0.1510136998,-0.1328715438,0.2011575392
15339.78617,0.1822439709,0.2138569424,-0.1439958715,0.3157253043
15349.77417,0.3490150398,0.2369668928,-0.1235733014,0.4395852217
15359.76117,0.4287380245,0.2076587476,-0.1481696141,0.4988914548
15369.749170000001,0.4226344085,0.1581151432,-0.1193428409,0.4667579195
15379.73617,0.2811034307,0.09478848204,-0.1249257624,0.321885758
15389.72417,0.09506695569,0.0006265291572,-0.08196100652,0.1255218116
15399.71117,-0.1092283273,-0.04322203338,-0.03149778128,0.1216185918
15409.69825,-0.2360216904,-0.01120326519,0.02357071102,0.2374601649
15419.68525,-0.2511899525,0.05118579492,0.07594422162,0.2673647371
15429.67325,-0.2185896787,0.03090282708,0.1426954508,0.2628657909
15439.660249999999,-0.1399943295,0.02671271235,0.1911267686,0.2384143934
15449.648249999998,-0.02420718044,0.02294622838,0.1306893629,0.1348785622
15459.63525,0.06519148439,-0.02281671256,0.05485565364,0.08820246451
15469.62325,0.1640284324,-0.08968196243,-0.00929064095,0.1871750438
15479.61025,0.2170793429,-0.1576711933,-0.05412065864,0.2737018305
15489.598250000001,0.2916006446,-0.2349501881,-0.09493013084,0.386321442
15499.58525,0.2702279019,-0.2424021721,-0.1372312278,0.3880906362
15509.573250000001,0.2073340809,-0.1910051465,-0.2200500208,0.3576204675
15519.56025,0.1537689078,-0.1074146672,-0.2051653486,0.2779849061
15529.54825,0.1326665989,-0.099309403,-0.1318243074,0.211755595
15539.53525,0.1881230539,-0.1318599755,0.02279420078,0.23086124
15549.52325,0.1013430646,-0.1704387349,0.08907005131,0.217378134
15559.510250000001,0.04663797677,-0.1528383234,0.1236358666,0.2020407917
15569.49725,-0.0272684902,-0.06985917047,0.133282603,0.1529317708
15579.48525,-0.0790850535,0.01675724298,0.1455787128,0.166518505
15589.47225,-0.1114853525,0.05208173454,0.1142592716,0.1679186471
15599.46025,-0.1449010205,0.0741969274,0.06353350639,0.174751241
15609.447250000001,-0.1345809773,0.08157333612,-0.04087496102,0.1625946218
15619.43525,-0.0440128693,0.2136620839,-0.1007217979,0.2402779627
15629.42225,0.02914135337,0.3024802664,-0.1224523902,0.3276249653
15639.410249999999,0.08163502425,0.1696153007,-0.1156175798,0.2209096019
15649.39725,0.15959712,0.07070628583,-0.009280115962,0.174804863
15659.38525,0.2748843321,0.1118385243,0.01369125545,0.2970802956
15669.37225,-0.02435219139,-0.2146949945,0.1581683528,0.2677763951
15679.36025,-0.1725229749,-0.3029769874,0.1407050586,0.3759749264
15689.34725,-0.2470068544,-0.2867174886,0.1389538175,0.4031469556
15699.33525,-0.4496289566,-0.2816074607,0.1152690858,0.5429142867
15709.32225,-0.550451619,-0.1982458998,0.08578333139,0.5913181898
15719.310249999999,-0.5246659827,-0.06213923782,0.1164128011,0.5410061169
15729.29725,-0.4714232835,0.01259753376,0.06635069489,0.4762363119
15739.28525,-0.3532911086,-0.04285073519,0.007797846794,0.3559657278
15749.27225,-0.1061863133,-0.2288658679,0.02512548566,0.2535476457
15759.260250000001,0.1156552944,-0.3834399372,0.05208641231,0.4038753854
15769.247249999999,0.2670119333,-0.4122092615,0.01000984848,0.4912352236
15779.23525,0.3678325492,-0.4185533443,-0.05892122269,0.5603207981
15789.22225,0.361138072,-0.3832896638,-0.1061801738,0.5372205345
15799.21025,0.2965082127,-0.3066659957,-0.09515232503,0.4370527635
15809.197250000001,0.1232113588,-0.2187409754,-0.0003905940056,0.251055384
15819.18525,-0.1233019906,-0.09593439013,0.03357646644,0.1597941401
15829.17225,-0.3169717133,-0.018887676,0.004336295128,0.3175635602
15839.16025,-0.3802947199,0.05007599339,-0.03512130082,0.3851820153
15849.14725,-0.3626086468,0.102225848,-0.08630314887,0.3865014724
15859.13525,-0.2565708527,0.1285697472,-0.09704156041,0.3029452868
15869.12225,-0.1057123965,0.0812112473,-0.08279657364,0.1569256195
15879.109250000001,0.1299795109,0.03435794681,-0.06282833219,0.1483999363
15889.09725,0.2759286448,-0.004116001278,-0.001675812006,0.2759644304
15899.08425,0.3296087158,-0.06780694395,0.07787731111,0.3454049258
15909.07225,0.3225218904,-0.1460355265,0.145786289,0.3828842996
15919.05925,0.311525909,-0.2109764577,0.1975259614,0.4249423057
15929.04725,0.3576870453,-0.3065113369,0.2298101932,0.5241201646
15939.03425,0.4477958545,-0.3680974281,0.293756513,0.6498536241
15949.02225,0.4885310671,-0.3605618289,0.320781759,0.6867083609
15959.00925,0.4619130796,-0.3068203622,0.3592038131,0.6607040238
15968.997249999999,0.3774614516,-0.2172573906,0.3363371068,0.5502731782
15978.98425,0.1897047257,-0.09498319432,0.2822772592,0.3531149122
15988.972249999999,-0.05528805524,-0.04350606188,0.2317391896,0.2421829855
15998.95925,-0.3110902914,0.003474707901,0.1487642759,0.3448478691
16008.94725,-0.5370743591,0.02651288375,0.1806561595,0.5672640022
16018.93425,-0.6200904956,0.08365319073,0.2630521989,0.6787536655
16028.922250000001,-0.5571849802,0.1282947819,0.2960866284,0.6438803808
16038.909249999999,-0.4181326371,0.2135385615,0.1479865962,0.4922739605
16048.89725,-0.3034962201,0.2550198787,-0.1238083595,0.415299415
16058.88425,-0.1854619861,0.2852657712,-0.3792691183,0.5095270087
16068.872249999999,-0.06253860265,0.3037315705,-0.5324135435,0.616139696
16078.859250000001,-0.06469330162,0.3215421894,-0.5092106223,0.6056979947
16088.84725,-0.1476305008,0.3514410496,-0.3796550345,0.5379995552
16098.83425,-0.32494293,0.4249640854,-0.3380246133,0.6328056738
16108.82225,-0.5166596827,0.440206461,-0.3919295096,0.7837905948
16118.809250000002,-0.651414907,0.4435651016,-0.5136007118,0.9406790481
16128.797250000001,-0.673974342,0.5401643202,-0.5367451608,1.016914094
16138.78425,-0.5595519331,0.4965366362,-0.3872955912,0.8424042212
16148.77225,-0.3691239068,0.357825332,-0.2116844094,0.5559691682
16158.75925,-0.0741663757,0.2231966999,-0.1918711191,0.3035324439
16168.747249999999,0.1609291157,0.1299752717,-0.2845453942,0.351792315
16178.734250000001,0.2112256953,0.1126021707,-0.2069890952,0.3164490934
16188.72125,0.358002795,0.1089179863,-0.04390791178,0.3767718589
16198.70925,0.3266625962,0.09380191058,0.03059672534,0.3412380544
16208.696249999999,0.3465536544,0.03577516571,-0.06255234361,0.3539662322
16218.684249999998,0.419970417,-0.01589492485,-0.1942082512,0.4629736976
16228.671250000001,0.40681272,-0.09080667436,-0.2105307537,0.4669749881
16238.65925,0.5336063755,-0.1430218716,-0.2308258545,0.5987249743
16248.64625,0.3882042485,-0.166445379,-0.1828512043,0.460262062
16258.63425,0.2826801324,-0.0508810088,-0.1013649917,0.3045846284
16268.621249999998,0.2731596959,0.186504837,-0.08015714049,0.3403313692
16278.60925,0.2286375341,0.3725873588,-0.1883891022,0.476011466
16288.59625,0.1369458836,0.4397226039,-0.2986249048,0.5488961442
16298.584250000002,0.1427562618,0.4410657093,-0.2702448589,0.5366102813
16308.57125,0.1770159754,0.3355719987,0.0144408685,0.3796732286
16318.55925,0.2143855307,0.1621842206,0.3418907923,0.4349186027
16328.54625,0.184197818,-0.07083638638,0.499422968,0.5370008667
16338.534249999999,0.1204535195,-0.3955540524,0.5836053318,0.7152392901
16348.521250000002,0.1394601864,-0.7214208426,0.6010405594,0.9492875906
16358.509250000001,0.1989363098,-0.8925143194,0.6342287707,1.112835837
16368.49625,0.2355758402,-0.8386591244,0.6257269192,1.072557355
16378.48425,0.2529493797,-0.6508236073,0.5696316558,0.9011298352
16388.47125,0.3035029444,-0.5377361177,0.4262824863,0.7503272137
16398.45925,0.3628583229,-0.4067238423,0.1862525296,0.5760038639
16408.44642,0.3961038369,-0.4401324937,0.08249017954,0.5978457086
16418.43442,0.2624122211,-0.5757995912,0.1581578279,0.6522417049
16428.42142,1.104161891,-0.8946998625,-0.1782219636,1.43227944
16438.40942,0.8715079048,-1.150960228,-0.3990619433,1.497827063
16448.39642,0.5003161302,-1.115413104,-0.4421430588,1.299981964
16458.384420000002,0.1555958703,-1.002415223,-0.4713493162,1.118577906
16468.37142,-0.005078599155,-0.9086786547,-0.4845961833,1.029833069
16478.35942,-0.2810782877,-0.7493388122,-0.3624262136,0.8785592864
16488.346419999998,-0.7275658277,-0.4402020755,-0.08641190708,0.8547496233
16498.33442,-0.9134865278,-0.08783248812,0.1212613124,0.925676233
16508.32142,-0.9729655749,0.05352263466,0.30485102,1.021009709
16518.30842,-0.8787792099,0.1269284338,0.5265809458,1.032303841
16528.29642,-0.6961320734,0.2368810849,0.5941694963,0.9453834684
16538.28342,-0.426293596,0.2495480543,0.5134557009,0.7124866442
16548.271419999997,-0.1184090406,0.2112840213,0.2899651784,0.3778113858
16558.258420000002,0.0930338788,0.183692911,0.06840014398,0.2169722744
16568.24642,0.2297409037,0.2651805854,-0.1536747676,0.3830372826
16578.23342,0.3436426181,0.3853209865,-0.3264605749,0.6108510608
16588.22142,0.4468652701,0.4611669749,-0.3680810559,0.7401670164
16598.20842,0.4515772489,0.4835354984,-0.3165910596,0.7334565351
16608.19642,0.5337107483,0.4086842676,-0.1572865927,0.6903687896
16618.18342,0.4860585719,0.3133398615,-0.008947409391,0.5783725964
16628.171420000002,0.3482759517,0.2759187046,0.06692079842,0.4493391407
16638.15842,0.2961901242,0.1513192168,0.06599167585,0.3390884786
16648.14642,0.2296470559,0.08697630957,0.01822635591,0.246241444
16658.13342,0.1560224247,0.1663863221,-0.02320876837,0.229272877
16668.12142,0.2063805462,0.1673816644,-0.04868450224,0.2701476119
16678.10842,0.2608137386,0.07929482237,-0.04194909453,0.2758100825
16688.09642,0.3059022032,0.00435208261,-0.04493994534,0.3092162629
16698.08342,0.3281830184,-0.007032153904,-0.03793030322,0.3304425104
16708.07142,0.3941333252,-0.08509335995,-0.02999270797,0.4043284809
16718.058419999998,0.3944888359,-0.1358736505,0.001020923853,0.4172339066
16728.04642,0.404052688,-0.1921349747,0.0116915077,0.447561297
16738.03342,0.3472126356,-0.2608118382,-0.07414210975,0.4405411237
16748.02142,0.1192753056,-0.2410732462,-0.151395523,0.3086478785
16758.00842,0.1884513751,-0.0652249597,-0.08490858793,0.2167433608
16767.99642,-0.4620962436,-0.04508919552,-0.08219840348,0.471510924
16777.98342,-0.6760916188,-0.3809636414,-0.2578008145,0.8177373864
16787.97142,-0.3108689743,-0.2222741555,0.07860587418,0.3901592019
16797.95842,-0.5153142384,-0.2738528833,0.309622348,0.6606134757
16807.94642,-0.3840299213,-0.3687982169,0.410373382,0.6722331574
16817.933419999998,-0.2673902482,-0.4541973862,0.3842743349,0.6522726232
16827.920420000002,-0.1345667978,-0.4555714819,0.2455760407,0.5347533917
16837.90842,-0.09135338902,-0.3484079526,0.09055115104,0.3713933953
16847.89642,-0.09038874462,-0.2606574717,-0.05597188711,0.2815054082
16857.883420000002,-0.1388186006,-0.1840946147,-0.2049121642,0.3084646269
16867.87042,-0.3089412935,-0.007100127786,-0.3455394548,0.4635651513
16877.85842,-0.5151088549,0.183171047,-0.4696816903,0.7207563077
16887.84542,-0.6548485382,0.133864401,-0.4815480298,0.8237929296
16897.833420000003,-0.6648368981,-0.0856595166,-0.3417025119,0.7524003326
16907.82042,-0.6080199422,-0.3167256917,-0.08283282638,0.6905539016
16917.80842,-0.5676089577,-0.3794547674,0.1671297956,0.7029212032
16927.79542,-0.5559447858,-0.4372299358,0.3193339884,0.7760275883
16937.78342,-0.4476528901,-0.4025960004,0.4005453819,0.723127411
16947.77042,-0.3714677632,-0.2810489054,0.4141343111,0.6232848578
16957.758420000002,-0.2703416303,-0.09744034052,0.3289555818,0.4367962818
16967.74542,-0.1537794328,-0.0005253723264,0.2171351838,0.2660753239
16977.73342,-0.03931287736,-0.003545459211,0.1368154907,0.1423957552
16987.720419999998,0.1242588875,-0.02290997565,0.04994223833,0.1358652467
16997.70842,0.2980299506,-0.1053598094,-0.02350989997,0.3169783214
17007.69542,0.4290433954,-0.1411243039,-0.1337959886,0.4710580334
17017.68342,0.4818918461,-0.1385619079,-0.2338897955,0.5532843664
17027.67042,0.5164950836,-0.08838066459,-0.3311137891,0.6198505098
17037.65842,0.4588712119,-0.07317351848,-0.3312354112,0.5706435407
17047.645419999997,0.3812602414,-0.1369175246,-0.216103735,0.4591368037
17057.63342,0.3124382208,-0.1900524889,-0.06229915917,0.3709700468
17067.62042,0.2208358866,-0.2034148385,0.05117424667,0.3045732898
17077.60842,0.1250755973,-0.1574212249,0.1337158817,0.2414648714
17087.595419999998,0.1062002005,-0.1302955529,0.2485587054,0.3000614
17097.58342,0.1207795018,-0.1253920779,0.3226312333,0.366608475
17107.57042,0.1788373831,-0.1272364359,0.3379129314,0.4029355649
17117.55842,0.2186104363,-0.0164894405,0.2568763697,0.3377097775
17127.545420000002,0.2006518829,0.1067852144,0.1358933848,0.264823096
17137.53342,0.1866773298,0.2212791055,0.02933781981,0.2909872432
17147.52042,0.1245294674,0.3142667913,-0.05004105628,0.3417240286
17157.50842,0.0430571419,0.2726220444,-0.1105930674,0.2973340262
17167.495420000003,-0.02168790758,0.1776544914,-0.1251935649,0.2184145424
17177.48342,-0.04970498756,0.1348511186,-0.1711269522,0.2234722438
17187.47042,-0.09591494814,0.1586770606,-0.2390113717,0.3024971449
17197.45742,-0.1249127524,0.1442796077,-0.2808189636,0.3395277474
17207.44542,-0.1158257407,0.09008819774,-0.2483569765,0.2884660697
17217.43242,-0.08633311585,-0.001556967348,-0.1601955825,0.1819847678
17227.420420000002,-0.05815114439,-0.1339678967,-0.03481607616,0.1501369778
17237.40742,-0.09821685076,-0.2179368371,0.05059303343,0.2443412977
17247.39542,-0.150703505,-0.2039540979,0.06730145216,0.2623705508
17257.382419999998,-0.1699158476,-0.1327698022,0.08790587068,0.2328661799
17267.37042,-0.1476778632,-0.07680346996,0.1358524543,0.2148567281
17277.35742,-0.1223092796,-0.05177124739,0.2150448042,0.2527530212
17287.34542,-0.08946488455,-0.09061050028,0.2579312074,0.2876503713
17297.33242,-0.04364434853,-0.1309938566,0.2308264393,0.2689703788
17307.32042,-0.07037153274,-0.1533560944,0.172857728,0.2415575261
17317.307419999997,-0.1010732156,-0.1711421549,0.07784047365,0.2134585942
17327.29542,-0.1658035009,-0.1956437427,0.09407117486,0.2731605039
17337.28242,-0.2585132977,-0.126726851,0.1236364514,0.3133285687
17347.27042,-0.3249341592,-0.1044303945,0.1428767145,0.3700022576
17357.257419999998,-0.3667256713,-0.05206755504,0.1276277608,0.3917749272
17367.24542,-0.3598356047,0.02705389738,0.0797478354,0.3695582404
17377.23242,-0.3460322289,0.09221804604,0.03804432392,0.360124759
17387.220419999998,-0.2890797637,0.08684094653,0.03436350167,0.3037915569
17397.207420000002,-0.1786798006,-0.01354522124,-0.003788411021,0.17923252
17407.194629999998,-0.0721296443,-0.1497993793,-0.05910014749,0.1764521665
17417.181630000003,0.003215676248,-0.1883360387,-0.1245106101,0.2257956955
17427.16963,-0.008503751904,-0.1607142305,-0.1696248025,0.2338246166
17437.15663,-0.04192117408,-0.1244208553,-0.1647102177,0.2106356805
17447.14463,-0.05786945477,-0.02613793105,-0.0860084492,0.1069089265
17457.13163,-0.07965062544,-0.08716312811,0.02665979505,0.1210470062
17467.119629999997,-0.154931919,-0.2241668992,0.116169557,0.2962263732
17477.106630000002,-0.2069230217,-0.3809779671,0.1521579999,0.4594707882
17487.09462,-0.2739136943,-0.407819172,0.08787721932,0.4990667237
17497.08163,-0.3350156361,-0.3493813679,0.04575621665,0.4862061785
17507.06962,-0.3377514021,-0.2813830738,0.06434919298,0.4442896155
17517.056620000003,-0.3356529826,-0.2290611649,0.1557704097,0.4351969238
17527.04363,-0.3139779389,-0.2492964779,0.190773012,0.4439878626
17537.03162,-0.3755687079,-0.1423770699,0.1664930338,0.4347907711
17547.01863,-0.4190439257,-0.05041717842,0.06927781105,0.427713828
17557.00662,-0.4429305325,0.05114705712,-0.02596748471,0.4466293635
17566.99362,-0.419651159,0.1438935453,-0.1108281255,0.4572694185
17576.98163,-0.3632894088,0.1504332174,-0.1480766433,0.4201619209
17586.96862,-0.3216392532,0.08356665194,-0.1265156204,0.3555859906
17596.95663,-0.1838540018,0.01809581682,-0.08084184945,0.2016560368
17606.94363,-0.1949996719,-0.03016052306,0.0227567786,0.1986262826
17616.93163,-0.1446536833,-0.07604055449,0.08316904128,0.1833683273
17626.91863,-0.05415661901,-0.0691082418,0.1343766171,0.1605177986
17636.906629999998,-0.04770056203,-0.08490449488,0.1884773952,0.2121505252
17646.893630000002,0.09994294882,-0.07406229526,0.1303028619,0.1801461974
17656.88163,0.1511011156,0.08236943454,-0.0237817955,0.1737292281
17666.86863,0.2270330581,0.2870281219,-0.267327683,0.4532033124
17676.85662,0.2865004107,0.3880020811,-0.5321726382,0.71821711
17686.84363,0.3520307413,0.4355760509,-0.6419237065,0.851890946
17696.83162,0.4309178665,0.4971162415,-0.6302503252,0.9110599528
17706.81862,0.4389697748,0.4620161368,-0.4544432616,0.7827337043
17716.80663,0.500388051,0.3650425503,-0.2355071354,0.662652153
17726.79362,0.5070836976,0.1667734078,-0.05390138805,0.5365189704
17736.781629999998,0.5081695256,-0.01543167919,0.02725094855,0.5091335951
17746.768620000003,0.5354347998,-0.1052311707,-0.004444468617,0.545695682
17756.756630000003,0.6109860885,-0.1172955845,0.0091672647,0.6222108109
17766.74363,0.6497335401,-0.1431892481,0.08066935658,0.6701972687
17776.731630000002,0.7442967582,-0.1942510821,0.1269225866,0.7796284308
17786.71863,0.8253108081,-0.2325436203,0.112939555,0.8648524779
17796.70663,0.9092274159,-0.2300980224,0.05104034543,0.9392788247
17806.69363,0.9921935588,-0.1870530134,-0.001132605672,1.009672309
17816.681630000003,1.010259409,-0.2044610515,-0.05250448823,1.032078057
17826.66863,1.001656693,-0.3131049496,-0.0836333102,1.05277983
17836.656619999998,0.8888355437,-0.4553573276,-0.09507514179,1.003203968
17846.64363,0.7026832938,-0.4888510559,-0.1214858454,0.8645796533
17856.63162,0.5146763071,-0.4590005815,-0.08140318215,0.6944060145
17866.61862,0.3752921346,-0.4249206698,0.05237760365,0.569337488
17876.605630000002,0.2588462967,-0.3871299689,0.1979808748,0.506031071
17886.59362,0.1566755587,-0.3411341625,0.3204215705,0.4935481034
17896.58063,0.1053747198,-0.3584328577,0.3754374379,0.5296519752
17906.568629999998,0.06753563315,-0.3399245198,0.2791536766,0.4450129392
17916.55562,-0.03075021476,-0.3346877535,0.04094044983,0.3385817308
17926.54363,-0.09137210011,-0.2348928854,-0.1605721432,0.2988426701
17936.530619999998,-0.110027934,-0.1497930935,-0.2127006555,0.2824636011
17946.51863,-0.005328275263,-0.1439482167,-0.1692277765,0.2222330308
17956.50563,0.1121384865,-0.219384023,0.0006502103806,0.2463834663
17966.493629999997,0.1028414136,-0.3174937235,0.2451334065,0.4140881643
17976.480630000002,0.05832188308,-0.403814414,0.4613488233,0.615881693
17986.46863,-0.01086412668,-0.4800115277,0.479615525,0.6786458191
