Time (s),Linear Acceleration x (m/s^2),Linear Acceleration y (m/s^2),Linear Acceleration z (m/s^2),Absolute acceleration (m/s^2)
-0.0004771249369,0.00463797491,-0.08862347022,-0.6605564439,0.6664911447
0.009559875005,0.08150499679,-0.01638082847,-0.7554737109,0.7600341597
0.01959687506,0.1033355033,0.1643450591,-0.4537778485,0.4935603919
0.02963287511,0.1815679232,0.3792274569,-0.09833554924,0.4317988595
0.03966987506,0.4797582702,0.5328405364,0.2594719487,0.7625042473
0.04970687511,0.6842530894,0.5788837051,0.7230853987,1.151590695
0.05974287505,0.6811495335,0.5193926713,0.95129287,1.280113885
0.06977987511,0.5450038778,0.2740781473,0.7809681559,0.9909890606
0.07981587504,0.2644251799,0.01311281964,0.3412388277,0.4318987837
0.0898528751,-0.1305571062,-0.1561829308,-0.09242226005,0.223562385
0.09988987504,-0.4367865707,-0.2690721998,-0.3859431303,0.6419769909
0.1099258751,-0.486216666,-0.28273495,-0.5524765098,0.7884009083
0.119962875,-0.3782826199,-0.2611483455,-0.6182635331,0.7704193632
0.1299998751,-0.2729433306,-0.1311882766,-0.5412966335,0.6202503293
0.140035875,-0.2170558627,0.04564482719,-0.5765448189,0.6177383151
0.1500728751,-0.05158431921,0.1124230997,-0.6204731959,0.6326822917
0.160109875,0.03299750073,0.09526108325,-0.51941109,0.5291043276
0.1701458751,-0.04019993652,0.0219867003,-0.2947476161,0.2982877923
0.180182875,-0.1929768824,-0.1208791968,0.08197737873,0.2420168341
0.1902200833,-0.3017635805,-0.2634701286,0.3093978149,0.5061667463
0.2002560834,-0.3681125578,-0.3322262219,0.3111660129,0.5854104588
0.2102930833,-0.3167411503,-0.2923129816,0.14490219,0.4547180227
0.2203300834,-0.2766003803,-0.1434402399,-0.04923297107,0.3154469182
0.2303660834,-0.1763745724,0.1321580373,-0.04017271042,0.224025854
0.2404030834,0.02937055509,0.4274278097,0.09804318845,0.4395106697
0.2504400834,0.3676804851,0.5486309423,0.09331629932,0.6670028348
0.2604760834,0.6463592581,0.5541963221,0.03432432532,0.8521103293
0.2705130834,0.587050694,0.5824180546,-0.08346023262,0.8311467488
0.2805490834,0.4449242869,0.563491787,-0.3168419051,0.7847734756
0.2905860834,0.1672916172,0.5416967292,-0.4106645733,0.7000480151
0.3006230834,-0.07405476697,0.623452937,-0.4071825564,0.7483149787
0.3106590834,-0.01936334699,0.6758473514,-0.3549868011,0.763649272
0.3206960834,0.2010079052,0.6608802335,-0.02722112775,0.6913087955
0.3307330834,0.5722563978,0.4532907389,0.5038270909,0.8870127487
0.3407690834,0.7767546523,0.156133668,0.7316790515,1.07846175
0.3508060834,0.8218979345,-0.07642474854,0.6243569165,1.034977544
0.3608430834,0.8794529553,-0.1330313555,0.203837446,0.9125155048
0.3708790834,0.756309278,-0.08948790796,-0.1936030644,0.7858078367
0.3809160833,0.2151614562,-0.03241743866,-0.1938422155,0.2914106159
0.3909530834,-0.5825158493,-0.08034257032,-0.1254695535,0.6012672053
0.4009890833,-1.356317219,-0.2315252546,-0.1580642724,1.384985436
0.4110260834,-1.706219135,-0.3694509854,-0.3462767887,1.77977116
0.4210630833,-1.536924408,-0.4774744208,-0.8258700943,1.808916768
0.4310990834,-0.9658800651,-0.6899168486,-1.5164631,1.925764755
0.4411360834,-0.6193214406,-0.9492602317,-2.001068054,2.299766813
0.4511730834,-0.2560055731,-0.9848995958,-2.022065406,2.263694894
0.4612090834,1.061033413,-0.9678950156,-1.189254082,1.864654911
0.4712460834,0.04157531127,-0.9866084446,0.8743055052,1.318914268
0.4812830834,-1.471455912,-0.7714129284,2.572401835,3.062272295
0.4913190834,-0.9360821425,-0.9556488995,2.423148147,2.767880333
0.5013560834,-0.3011917593,-1.13528282,1.493064882,1.899691106
0.5113920834,0.07909908682,-1.228772781,0.2938220018,1.265887271
0.5214290834,0.03197506025,-0.9578733265,-0.869173404,1.293833884
0.5314660834,0.4888474745,-0.3034085119,-1.667970305,1.76441308
0.5415020834,1.895004825,-0.6178203142,-2.522040936,3.214566177
0.5515390834,1.15890484,-0.003728769422,-0.4146015036,1.230840663
0.5615760834,-0.08745351546,1.0801465,1.22718497,1.637176694
0.5716120834,0.006374195963,1.831686204,1.552824596,2.401328633
0.5816490834,1.110425136,2.331809668,1.730575858,3.108902236
0.5916860834,2.077149978,3.225722642,2.374838451,4.512172011
0.6017220834,2.744049774,3.587368544,2.246328346,5.044305033
0.6117590833,2.822291366,2.623996789,0.7841484565,3.932629719
0.6217960834,2.335789576,1.546983812,-0.5133241385,2.848257981
0.6318320833,1.345491099,0.5690521967,-0.9878180873,1.763505394
0.6418690834,-0.5063560847,-0.6519350168,-1.643290962,1.838972794
0.6519060833,-2.251979679,-0.6902538675,-4.827216829,5.371208914
0.6619420834,0.3515600404,0.8118569496,-2.944432685,3.074473939
0.6719790834,2.745696642,1.213653051,3.460957004,4.58148744
0.6820160834,-0.100536898,0.5902737889,-3.398126918,3.450477846
0.6920520834,-2.181253952,-0.9742104471,-1.637276516,2.896140395
0.7020890834,-1.45904125,-1.74930566,-0.8068502712,2.416584164
0.7121260834,-1.039794864,-1.386122231,-1.594921625,2.355054817
0.7221620834,-1.010874828,-1.374902886,-1.517466483,2.283622208
0.7321990834,-0.6077197608,-1.247682092,-1.558739054,2.087031708
0.7422360834,-0.2416647651,-1.238741114,-1.421159917,1.900678015
0.7522720834,-0.08611340672,-1.211315042,-1.178602794,1.692277813
0.7623090834,-0.2059287027,-1.241798916,-0.9215831673,1.560059843
0.7723450834,-0.3836898326,-1.539574805,-1.304292787,2.053944532
0.7823820834,-0.6140780962,-1.895446874,-1.924728561,2.770269084
0.7924190834,-0.5496639991,-2.183780387,-2.087002829,3.070278179
0.8024550834,-0.3606784809,-2.450502591,-1.568658271,2.931849363
0.8124920834,-0.6043524224,-2.644774577,-0.6966974992,2.800975155
0.8225290834,-0.9041061321,-2.887340764,-0.3185568935,3.042305553
0.8325650834,-0.9404334211,-2.979936101,-0.5767810464,3.177595091
0.8426020833,-0.8418841562,-2.534373591,-1.252849569,2.949822108
0.8526390834,-0.6184953752,-1.994844424,-2.400942176,3.182210574
0.8626750833,-0.1470989889,-1.491681139,-3.485518234,3.794151827
0.8727120834,0.1720958358,-0.9452524039,-3.899766566,4.016378761
0.8827490833,0.4201040259,-0.5041776314,-3.93617133,3.990504632
0.8927850834,1.034995762,-0.6063112396,-2.909389152,3.146962787
0.9028220834,1.112010024,-1.06896867,-1.400334474,2.083313934
0.9128590834,1.019749147,-1.665055468,-0.2905113083,1.974004776
0.9228950834,0.74585738,-2.151210081,0.6415646875,2.36550487
0.9329320834,0.4455470154,-2.522791426,1.25451661,2.852507782
0.9429690834,0.3367534286,-2.658802632,1.000080868,2.860558696
0.9530050834,1.503729034,-1.419375639,0.8540220988,2.237226399
0.9630420834,2.216069589,-0.1537004954,0.640305782,2.311834718
0.9730790834,2.137397057,0.2562369767,-0.03651118398,2.153011062
0.9831150834,2.171671681,0.8242869607,-0.6351093614,2.408105227
0.9931520834,2.088575145,1.143810691,-0.2916047376,2.39905864
1.003189083,2.150438102,0.8281019765,0.4090934265,2.34040474
1.013225083,1.833228407,0.3658304626,0.7442505652,2.012080322
1.023262083,1.206650718,0.2656442696,0.765142082,1.453277413
1.033298083,0.7566349679,0.1924207574,0.6480545121,1.014641253
1.043335083,0.441012792,0.1501749167,0.5603228885,0.7287019471
1.053372083,0.3227902776,0.139576546,0.5542634189,0.6564168744
1.063408083,0.101055674,0.436499911,0.7518794274,0.8752525892
1.073445083,0.2003291166,0.9291462484,0.8147428429,1.25189872
1.083482083,0.346996581,1.491567995,0.5898162442,1.641056036
1.093518083,0.4467576814,1.661253608,0.4407490826,1.77584226
1.103555083,1.015652003,2.106231397,0.9430120432,2.521315412
1.113592083,1.573023802,2.832968382,1.435499629,3.544118074
1.123628083,1.767188199,2.788095095,1.523751655,3.635690787
1.133665083,2.119229758,2.652813329,2.035887054,3.958963175
1.143702083,2.321303099,2.814603447,2.449358291,4.394291374
1.153738083,2.230544372,2.848298028,2.487127211,4.390208607
1.163775083,1.940516043,2.520850443,2.389938886,3.978956816
1.173812083,1.528124202,2.14016776,2.204110279,3.431265618
1.183848083,1.118306306,2.048003947,1.981634248,3.06134014
1.193885208,0.8387211049,2.086288007,1.592741783,2.755517578
1.203922208,0.7380162638,2.150524641,1.681104906,2.827638226
1.213958208,0.9324145496,2.178780141,1.824917175,2.991120608
1.223995208,1.105150363,2.119200814,1.802400132,2.993495557
1.234032208,1.022566043,2.069038136,1.73536122,2.887566221
1.244068208,0.8888124472,1.796451175,1.689930693,2.621657898
1.254105208,1.181501843,1.555083375,2.039559106,2.823832901
1.264142208,1.730049024,1.840500881,2.094137017,3.281146593
1.274178208,2.004268528,2.144418978,1.186952033,3.166145956
1.284215208,1.875339469,1.871937267,0.2466642076,2.66118216
1.294251208,1.465396735,1.407402296,0.2308574295,2.044862823
1.304288208,0.9369543278,0.8966909856,0.6851872551,1.466771867
1.314325208,0.1826085448,0.4006146714,0.8993310034,1.001316258
1.324361208,-0.0455597502,0.07461778075,0.5984818178,0.6048338535
1.334398208,0.1534584206,-0.2569900981,0.5594072145,0.6344523852
1.344435208,0.2833315122,-0.9109096599,1.117299415,1.469146398
1.354471208,-0.3828464448,-1.606367842,0.8093821156,1.839045527
1.364508208,-1.35437302,-1.756117081,0.2962298852,2.237414942
1.374545208,-1.11309936,-1.273530586,-0.02178029358,1.691550981
1.384581208,-0.7163991076,-0.5812907115,-0.3458125198,0.9852476193
1.394618208,-0.4418869507,0.1270038629,-0.6521306062,0.7979150242
1.404655208,-0.09341628671,0.6593715057,-0.9039625829,1.122784813
1.414691208,0.09577856183,0.8037766823,-1.107794766,1.372020311
1.424728208,-0.04645086586,0.5436051142,-1.41064253,1.512473653
1.434765208,-0.3491378313,0.09251143008,-1.612762064,1.652712034
1.444801208,-0.9650385046,-0.594808597,-1.351759315,1.764185315
1.454838208,-1.793707076,-1.525633581,-0.9744607079,2.548434141
1.464875208,-2.274451699,-2.31785558,-0.6045021111,3.30318147
1.474911208,-2.273126135,-2.811698258,0.1946485466,3.620861441
1.484948208,-2.516719385,-2.949137354,0.9028884494,3.980765649
1.494985208,-2.670416957,-2.693904052,1.180877361,3.972746796
1.505021208,-2.134527243,-2.079788242,0.8851807415,3.108901836
1.515058208,-1.53148986,-1.297480489,0.0599409771,2.008110985
1.525095208,-0.9396908247,-0.5404748073,-0.4364151263,1.168584625
1.535131208,-0.6021708262,0.09093151242,-0.6820701045,0.9143838752
1.545168208,-0.5141684765,0.1907879224,-0.837128908,1.000776729
1.555204208,-0.5266598833,-0.1018257523,-0.5590031719,0.7747410294
1.565241208,-0.566264829,-0.349617303,-0.3613509107,0.7572731316
1.575278208,-0.6438100183,-0.4950869653,-0.5756308991,0.9954664107
1.585314208,-0.3813612521,-0.7140920886,-0.7844261992,1.127248144
1.595351208,0.116574769,-0.6969001052,-0.7041240478,0.9975219837
1.605388208,0.6450180531,-0.03404745966,-0.7729323274,1.007289383
1.615424208,1.440540513,1.105916056,-0.7815499538,1.977126102
1.625461208,1.815912462,1.636351486,-0.6384106994,2.526410988
1.635498208,1.112494758,1.418189532,-0.5142515069,1.874396102
1.645534208,0.5776645607,0.9755371803,-0.6315951848,1.297798756
1.655571208,0.1918465608,0.4637052512,-0.4519693047,0.6753546589
1.665608208,-0.2610009956,0.3820623332,-0.09364549756,0.4720832823
1.675644208,-0.1212572193,0.2961912936,0.3110063839,0.4462707322
1.685681208,0.02065762818,0.06041401684,1.490085141,1.491452419
1.695718208,0.4127572918,-0.4267678052,1.769045275,1.86601729
1.705754208,0.6523586476,-0.3193904141,1.71557892,1.86300646
1.715791208,0.8563183004,0.3076851654,1.934758875,2.138046561
1.725828208,0.6087390035,0.6499112955,1.497525723,1.742277578
1.735864208,0.6917934394,0.5779636458,0.6633350408,1.119211113
1.745901208,-0.02460859179,0.5476908562,-0.3778646171,0.6658472239
1.755938208,-0.2546520889,0.842155467,-1.417913543,1.668697795
1.765974208,-0.2263971734,1.390704694,-1.9318914,2.391133541
1.776011208,-0.3374913472,1.208026568,-1.465159045,1.928709316
1.786048208,-0.5429554886,-0.3487738422,0.687905041,0.9432164126
1.796084208,-0.4990879226,-1.888660888,3.311499833,3.84475745
1.806121208,-0.3794427806,-1.992182626,3.806413429,4.312951614
1.816157208,0.1943661261,-0.7302067226,1.931560448,2.074103617
1.826194208,0.701975196,0.7044833592,-0.1726975143,1.009401016
1.836231208,0.3786352801,1.347560137,-1.181838058,1.831945467
1.846267208,0.2706342834,0.9367312565,-1.25083111,1.585965582
1.856304208,0.4825566745,0.4718682566,-1.219112889,1.393469351
1.866341208,0.4779759657,-0.04444936395,-0.3012684309,0.5667445961
1.876377208,0.6947000903,-0.4003220183,0.6550501209,1.035353367
1.886414208,0.5943881822,-0.408768906,0.935979597,1.181713644
1.896451208,0.4645893502,0.1916822541,0.1539390618,0.5256258989
1.906487208,0.185585947,0.6715775684,-1.25174503,1.43259352
1.916524208,0.009777129292,0.7325157881,-1.237909933,1.438435252
1.926561208,0.05110875785,0.9276057994,-0.9959726143,1.361993419
1.936597208,-0.07499521852,1.103987937,-1.437652574,1.814182617
1.946634208,-0.6584093463,0.6642855057,-1.431327056,1.709817312
1.956671208,-1.191432754,0.308327482,-1.196877097,1.716709827
1.966707208,-1.122950165,0.7889554524,-1.107625782,1.763605016
1.976744208,-0.6428095597,0.8527053058,-0.8224576592,1.347867601
1.986781208,-0.5117196625,-0.2309612176,0.114405452,0.5729648371
1.996817208,-0.679992004,-2.22707171,1.932663233,3.026123708
2.006854208,-0.8984738016,-3.514974167,3.749014821,5.217030832
2.016891208,-0.4525528568,-2.833960362,4.259945694,5.136465004
2.026927208,0.3938181603,-1.562473086,3.193736326,3.577200946
2.036964208,0.6246346593,-0.2478500229,0.8409073788,1.07644011
2.047001208,0.6929412478,0.9203391722,-1.40331363,1.815621356
2.057037208,-0.1335340333,1.205429235,-2.512883611,2.790246409
2.067074208,-0.8433468372,0.8931566361,-2.399669237,2.69580695
2.077111208,-0.4266385818,0.5092009744,-1.47535659,1.618018287
2.087147208,0.3941578835,0.01793370277,-0.2102904332,0.4471063868
2.097184208,0.406979658,-0.7732416451,0.7154173601,1.129317087
2.107221208,-0.0169464004,-0.9939623415,1.048666552,1.444973998
2.117257208,-0.2716458517,-0.954704428,1.335099428,1.663653358
2.127294208,-0.3361160821,-0.6439851424,0.8893117994,1.148288448
2.137330208,-0.2405024117,-0.1013550514,-0.1106655729,0.2834803794
2.147367208,-0.2814370143,0.2312696582,-0.6887499636,0.7791463022
2.157404208,-0.5142579389,0.2572333422,-0.9021499461,1.069815286
2.167440208,-0.8486689728,-0.008262115717,-0.8559101647,1.20535866
2.177477208,-1.097125937,-0.4246707013,-0.6524867016,1.345276708
2.187514333,-0.9723124409,-0.8202865881,-0.565416398,1.392105338
2.197550333,-0.7858605212,-1.11828701,-0.1504611379,1.375056781
2.207587333,-0.3518988866,-0.8315316609,0.5866458839,1.076768834
2.217624333,0.665182761,-0.07593632787,1.063613205,1.25678458
2.227660333,1.337018484,0.7291583169,1.231435311,1.958500243
2.237697333,1.373701576,1.066490912,0.9308504194,1.972546929
2.247734333,0.8658124244,0.7011247185,0.1935989714,1.130790691
2.257770333,0.02783391595,0.05500154167,-0.6358104426,0.6387916838
2.267807333,-0.6922191167,-0.3244286674,-1.631796505,1.801993646
2.277844333,-0.7855196285,-0.5342326123,-2.016180768,2.228773308
2.287880333,-0.1923827505,-0.4096155828,-1.669532096,1.729778445
2.297917333,0.2737350619,-0.223460117,-0.6400695544,0.7311322333
2.307954333,0.8536221492,-0.2974674484,0.3727997589,0.977822743
2.317990333,0.9651811767,-0.620105406,0.6990106577,1.343399166
2.328027333,0.9827485514,-0.5413185605,0.3324288279,1.1701835
2.338064333,1.412274488,-0.1331586421,-0.03607849002,1.418996868
2.348100333,1.073150014,0.102501398,-0.156227662,1.089295447
2.358137333,-0.01028349817,-0.2840925273,-0.4070773065,0.4965140964
2.368174333,-0.6667311037,-1.004326531,-0.8679606915,1.485448723
2.378210333,-1.161375142,-1.547379376,-1.12659298,2.238836059
2.388247333,-1.377137985,-1.599514613,-1.163849099,2.410290595
2.398283333,-0.8757456744,-0.9793451795,-0.9853353596,1.642234221
2.408320333,-0.4713083857,-0.4288447362,-1.04699191,1.225655523
2.418357333,-0.2305405104,-0.3935497731,-1.172128172,1.257741946
2.428393333,-0.3065127987,-0.8361968619,-0.9929653913,1.3338499
2.438430333,-1.237940923,-1.852816872,-0.3945198262,2.262979006
2.448467333,-2.339754573,-2.964731002,0.001068871021,3.776782032
2.458503333,-3.000157819,-3.49573712,-0.1136049682,4.608039827
2.468540333,-3.393981827,-3.375804295,-0.7180889529,4.840539125
2.478577333,-3.169451669,-3.00980017,-1.271104576,4.551925724
2.488613333,-2.480510502,-2.702956712,-1.357952685,3.9118976
2.498650333,-1.843847535,-2.790842994,-0.6258918107,3.402986763
2.508687333,-1.697335607,-2.943962569,0.1109392226,3.400025188
2.518723333,-1.856765204,-3.493476294,0.6439304709,4.008316366
2.528760333,-1.602572122,-4.348483941,1.270666035,4.805428406
2.538797333,-1.220349575,-4.58375251,1.588028927,5.002187125
2.548833333,-0.4904048073,-4.296645451,1.429402152,4.554651416
2.558870333,0.3489840496,-3.659068272,1.560445856,3.993189422
2.568907333,0.8170542473,-2.825985053,1.610226712,3.35359497
2.578943333,0.7518998927,-2.157332554,1.018814762,2.501483703
2.588980333,0.8459143496,-1.836683819,0.6491344929,2.123759433
2.599017333,1.364840705,-1.354059024,0.8618819261,2.106918709
2.609053333,1.445008371,-0.6114108887,0.7510830367,1.73953965
2.619090333,1.626286674,-0.09941436052,0.4625872636,1.693717373
2.629127333,2.640420156,0.6075248292,-0.1669777679,2.7145509
2.639163333,3.293582211,1.403698669,0.3110204172,3.59371499
2.649200333,3.865087314,2.688421995,0.907200771,4.79473941
2.659237333,4.154090041,4.005631574,1.225112132,5.899359975
2.669273333,4.633414375,4.99860983,1.191084845,6.919054278
2.679310333,4.835611677,5.710491378,0.6129396433,7.507898979
2.689347333,4.648447566,5.669885974,0.3873183954,7.342049256
2.699383333,4.527395584,5.482292093,0.3079424429,7.116717355
2.709420333,4.032217695,5.362283839,-0.1318769324,6.710458929
2.719457333,3.781951602,5.144669183,-1.36729829,6.529952798
2.729493333,4.101697819,5.220358467,-2.945666447,7.263127311
2.739530333,4.104403911,5.452956612,-5.041914893,8.485385853
2.749567333,3.180152074,5.412022009,-7.529543796,9.802927074
2.759603333,0.9654641819,4.55517132,-8.179947134,9.412398311
2.769640333,-0.9723118562,2.490506609,-6.157705142,6.713072779
2.779676333,-2.130395601,-0.1418727475,-2.793582122,3.516079403
2.789713333,-3.099136562,-2.125601469,-0.4334915185,3.782954392
2.799750333,-3.315645509,-3.477050881,-0.4117129791,4.822125626
2.809786333,-2.213825428,-3.319523383,-1.675714357,4.32761795
2.819823333,-0.6720088005,-1.112557908,-1.729152061,2.163180015
2.829860333,0.1610831898,0.2888635629,-0.8124963427,0.8772344378
2.839896333,0.9994786048,0.9959147269,-0.3630802247,1.456925144
2.849933333,1.330222265,1.461936645,-0.3306682312,2.004018839
2.859970333,0.8339503616,1.776421537,-0.5138218828,2.028585618
2.870006333,0.05393120885,2.457615729,-0.6706958082,2.548061325
2.880043333,-0.1491583782,3.061001607,-0.4143486115,3.092517394
2.890080333,-0.002820696831,2.611687523,0.2060640657,2.619805732
2.900116333,-0.5591014051,1.702038522,0.6395842355,1.902261156
2.910153333,-1.426506026,1.32043695,0.3308043252,1.971777037
2.920190333,-1.750933524,1.295326667,-0.6983604473,2.287213741
2.930226333,-1.957962381,1.411171119,-1.372445009,2.776441232
2.940263333,-2.2580257,1.915612167,-1.38307554,3.268202562
2.950300333,-2.323689932,2.687452819,-1.220753617,3.756617754
2.960336333,-2.255608461,2.902785891,0.4633313218,3.70521408
2.970373333,-1.299303943,0.9323823899,1.749083173,2.369983039
2.980410333,0.1028905302,-1.85939879,1.611863932,2.462936389
2.990446333,0.6460676283,-2.947205434,1.359017756,3.309131686
3.000483333,1.366729941,-2.73721087,0.6077565251,3.119237419
3.010520333,2.139490945,-2.039513497,-1.281271715,3.221598053
3.020556333,2.183480718,-0.2860048592,-2.115851237,3.053884949
3.030593333,1.963228383,1.891590051,-2.140128291,3.465909362
3.040630333,2.095371948,3.866378379,-0.6383580744,4.44375589
3.050666333,2.622702507,5.479123487,1.309967364,6.214127221
3.060703333,3.271997799,5.51731633,3.20217912,7.169428164
3.070740333,3.081799568,4.327799708,3.581851112,6.407573353
3.080776333,2.60875222,1.477773244,3.369565609,4.510362989
3.090813333,2.46339921,-2.293350484,2.893994603,4.438805793
3.100850333,2.714634771,-5.441537,2.469722974,6.563466952
3.110886333,3.011093282,-7.135277154,1.187093536,7.835052896
3.120923333,0.002355843186,-7.251284158,1.781874651,7.467007752
3.130960333,-3.131014413,-5.017658889,2.743243443,6.519627026
3.140996333,-3.621984061,-3.228231974,1.402297823,5.050414775
3.151033333,-3.148855437,-1.515124673,0.4492988082,3.523175096
3.161069333,-1.865284597,-0.05337279975,-0.0436974851,1.866559604
3.171106333,-0.5440068179,0.6000933105,-0.5632845032,0.9865823994
3.181143333,0.6302918404,0.9358129513,-1.118982244,1.58906732
3.191178833,0.9508432192,0.6990779006,-1.258650007,1.72540215
3.201215833,0.5037499076,0.1980405164,-1.24306016,1.35579592
3.211252833,-0.1099364251,-0.6922881138,-1.227476161,1.413522754
3.221288833,-1.209961411,-0.9251219022,-1.36203872,2.043283295
3.231325833,-1.874183475,-0.589760111,-1.873627989,2.714933246
3.241362833,-2.206140432,0.3952454656,-2.651853801,3.472117966
3.251398833,-2.370671725,1.180985534,-1.555132492,3.071359361
3.261435833,-2.308821048,1.176900085,-0.7484705007,2.697398104
3.271472833,-2.053289537,1.087816585,-0.39366394,2.356759246
3.281508833,-1.648731796,0.9176918453,0.2192505603,1.899617242
3.291545833,-1.319637051,0.5661250806,1.013563451,1.75762636
3.301582833,-1.184688576,0.07472800076,1.770083156,2.131259176
3.311618833,-0.9542363584,-0.4319139397,2.346925159,2.570053381
3.321655833,-0.9589503837,-0.8592875165,2.774482777,3.058711421
3.331692833,-1.007930755,-1.034273631,2.988518937,3.319170346
3.341728833,-0.5054836071,-0.1078209025,2.651683062,2.701585106
3.351765833,-0.3415843982,0.5839356995,2.066324151,2.174248444
3.361802833,-0.2736163634,0.6248761493,1.171252332,1.355421758
3.371838833,0.3218515071,1.245783793,0.693766363,1.461806218
3.381875833,0.6591235837,2.263602775,0.2318807288,2.368989256
3.391912833,0.4051681906,2.972839043,-0.2619225899,3.011733169
3.401948833,0.009236261845,3.206130669,-0.632413795,3.267920804
3.411985833,-0.2330998367,3.060640833,-0.9784134257,3.221668927
3.422022833,-0.5144851032,2.711450962,-1.534580698,3.1577839
3.432058833,-0.8990380579,2.306124312,-1.775256772,3.045983483
3.442095833,-1.242760198,2.165177763,-1.362695947,2.844184927
3.452132833,-1.486844907,2.279409553,-0.5307389009,2.772742229
3.462168833,-1.403784331,2.925421633,0.4222134455,3.272150114
3.472205833,-1.450144565,3.648545038,1.142703813,4.089079623
3.482242833,-1.734629733,4.086212638,1.442467171,4.667631688
3.492278833,-1.760226504,4.299076431,1.304290448,4.825104048
3.502315833,-1.702495044,4.732765585,0.9088005692,5.111113179
3.512352833,-1.581465281,5.457485865,0.5072442037,5.704601747
3.522388833,-1.23219004,6.1766203,0.2949802987,6.305231479
3.532425833,-0.6990337542,6.284124284,0.02691937488,6.32294163
3.542462833,1.38091207,-6.228279866,-1.553950185,6.566060418
3.552498833,4.558602466,-24.66228795,-0.8014520486,25.09286011
3.562535833,5.961690686,-27.87847641,3.181407471,28.68575529
3.572572833,6.352934902,-19.99661214,2.14382914,21.09076297
3.582608833,5.909484406,-11.73667744,-0.3770248108,13.1458644
3.592645833,4.195806709,-5.216557776,-0.7596749353,6.737534785
3.602681833,1.076343324,-0.9554543334,-0.2848816822,1.4671624
3.612718833,-2.657231193,-0.1971704507,-0.3135610324,2.68292272
3.622755833,-4.905416322,0.5944185877,-0.9972046226,5.040918548
3.632792833,-5.439705652,2.126118363,-1.870426054,6.132639766
3.642828833,-4.990926003,3.42441483,-2.12190252,6.413924665
3.652865833,-4.03285241,3.980994916,-1.647713796,5.901455738
3.662901833,-1.9621791,3.1015462,-0.9190290304,3.783430984
3.672938833,-0.08431989209,1.598779033,-0.04982185878,1.601776032
3.682975833,0.7205203713,0.1949911934,0.7823277066,1.081299131
3.693011833,0.8621761141,-0.9466472572,1.296148201,1.821946442
3.703048833,0.6470028904,-1.600630846,1.413118241,2.231038998
3.713085833,0.253742591,-1.57478089,1.139021749,1.960023137
3.723121833,-0.03988944937,-1.158573741,0.6670621292,1.337481277
3.733158833,-0.1858964707,-0.6027672422,0.2758559201,0.6884637498
3.743195833,-0.2573467234,0.05366632998,0.06133071408,0.2699423411
3.753231833,-0.1941510582,0.591559884,0.06358386554,0.6258439403
3.763268833,-0.1010090424,0.9238448703,0.3372421827,0.9886477942
3.773305833,-0.02085511789,0.9293523628,0.6531795236,1.136122458
3.783341833,-0.04983192695,0.7690053374,0.8065082091,1.115485509
3.793378833,-0.1823953225,0.4521774656,0.7817627194,0.9213498051
3.803415833,-0.2490728036,0.1511610496,0.5059899759,0.5838773674
3.813451833,-0.1161215733,-0.06166882932,0.2211257623,0.2572622534
3.823488833,-0.03504146805,-0.1777454156,0.03180052087,0.1839364302
3.833525833,-0.05809784336,-0.3510095251,-0.07298976973,0.3631949237
3.843561833,-0.05540145468,-0.5154191959,-0.2371502761,0.5700583497
3.853598833,-0.0548996174,-0.4634228307,-0.4574990165,0.6535136097
3.863635833,-0.04050205484,-0.2574423802,-0.7214133143,0.7670424796
3.873671833,-0.04187520035,0.03826944172,-0.8503202996,0.8522104755
3.883708833,0.02502606472,0.1833569884,-0.6675386041,0.6927148599
3.893745833,-0.007993966062,0.2658670485,-0.3295648617,0.4235117342
3.903781833,-0.00500952892,0.2962766629,-0.05436923839,0.3012656145
3.913818833,0.1460253305,0.2755506223,0.1345292294,0.3396316478
3.923855833,0.3605138817,0.2101740736,0.245256198,0.4840392575
3.933891833,0.4452681032,0.06088120937,0.2935321261,0.5367786456
3.943928833,0.1541004084,-0.3197251672,0.2177332809,0.4163879201
3.953965833,0.01655924164,-0.242948302,0.1716062777,0.2979040122
3.964001833,0.2523986268,-0.09817124248,-0.09462432146,0.2868735294
3.974038833,0.4712548472,0.1405559546,-0.154491112,0.5154654315
3.984075833,0.7009975415,0.2205563897,-0.08111147918,0.7393387223
3.994111833,0.8270535707,0.2500567621,0.08974730507,0.8686774844
4.004148833,0.6783189695,0.3093054289,0.3680531354,0.8314142067
4.014185833,0.5809541677,0.2187209487,0.644467757,0.8948101967
4.024221833,0.4542173033,0.09987804472,0.7889612997,0.9158323617
4.034258833,0.1593133838,0.02654752851,0.7750542819,0.7917036475
4.044294833,-0.1796848274,-0.004310567379,0.6662780906,0.690095437
4.054331833,-0.3858644121,-0.04408332825,0.4904995322,0.6256392535
4.064368833,-0.5079387067,-0.08171776235,0.224205637,0.5612020047
4.074404833,-0.6010718055,-0.08738429904,-0.03226150073,0.6082467719
4.084441833,-0.612018853,-0.1059568101,-0.1996028924,0.6524072629
4.094478833,-0.4685350513,-0.283485294,-0.2788467709,0.6145278902
4.104514833,-0.600752986,-0.1251964885,-0.2922621109,0.6797024734
4.114551833,-1.001645144,0.4842593837,-0.08118274212,1.11552265
4.124588833,-0.6118759251,0.51324754,0.1235189223,0.8081287702
4.134624833,0.02615974847,0.1334521723,0.07900348485,0.1572748084
4.144661833,0.003141745515,0.116734398,-0.02299651444,0.1190194519
4.154698833,0.001665213928,-0.06545256257,-0.08541671097,0.1076235355
4.164734833,0.3040906627,-0.5277047807,-0.1144088142,0.6197038353
4.174771833,0.396438188,-0.8858005464,-0.1231348334,0.9782474289
4.184808833,0.2438620391,-0.9331594849,-0.1976889525,0.9845487496
4.194844958,0.1179202499,-0.5058549052,-0.3203671914,0.6102700286
4.204881958,0.1132579725,-0.009699946046,-0.3034787516,0.3240691437
4.214918958,0.1353025602,0.3140790957,-0.0976126872,0.3556412488
4.224954958,0.1400201669,0.4595525587,0.2085416771,0.5237211399
4.234991958,0.1779000744,0.3933585691,0.4422511592,0.6180335656
4.245028958,0.1344467471,0.1910273659,0.6073899047,0.6507609997
4.255064958,-0.02440938447,-0.0286215359,0.6410792955,0.6421819629
4.265101958,-0.0895342106,-0.2237670958,0.5542960902,0.604427203
4.275138958,-0.02632617485,-0.2700372827,0.3489321555,0.4420032247
4.285174958,-0.001066824496,-0.188397873,0.1745026229,0.2567996536
4.295211958,0.02424811095,-0.09245675862,0.1106083433,0.1461862808
4.305248958,0.1557972338,-0.05916914463,0.09691811107,0.192787152
4.315284958,0.3405918333,0.04545976281,0.07968475856,0.3527308431
4.325321958,0.4224588824,0.2522675943,0.2826461454,0.5674498127
4.335358958,0.4154637121,0.4779870754,0.7067709361,0.9490031067
4.345394958,0.351509462,0.6015749949,1.214956615,1.400560942
4.355431958,0.1660487916,0.7014910465,1.664729778,1.814107804
4.365468958,0.03058247276,0.7864978677,1.956566066,2.108948779
4.375504958,0.0333120992,0.7736708307,1.955152794,2.102926222
4.385541958,0.1228450307,0.709774797,1.688563614,1.83578818
4.395578958,0.2409698235,0.5693965977,1.327290471,1.464233225
4.405614958,0.2978085604,0.4298960656,0.9491382442,1.083680752
4.415651958,0.3309268244,0.3194240355,0.549137165,0.7163071293
4.425688958,0.4092825839,0.2519056517,0.1867097088,0.5155862742
4.435724958,0.484043256,0.2098454601,-0.09010025762,0.5352112174
4.445761958,0.5018470775,0.1303940785,-0.1953391758,0.5540852809
4.455798958,0.4569368798,0.05686066389,-0.1891153995,0.4977841717
4.465834958,0.3918774694,-0.006397438645,-0.1783074061,0.4305838006
4.475871958,0.3319372963,-0.103495717,-0.1731401485,0.3884214762
4.485908958,0.2965310899,-0.2487376302,-0.2329073902,0.4517155614
4.495944958,0.2354922981,-0.3692083991,-0.4025913227,0.5948539631
4.505981958,0.170281591,-0.4741758603,-0.6880920788,0.8528242935
4.516018958,0.1814310618,-0.5298659116,-1.008231887,1.153345851
4.526054958,0.1864600327,-0.4988815159,-1.215392305,1.326962157
4.536091958,0.216004113,-0.4148733991,-1.173250326,1.263049501
4.546128958,0.2214426083,-0.3352115178,-0.8396433569,0.9308085503
4.556164958,0.1679536682,-0.2651139271,-0.3850392238,0.4967383948
4.566201958,0.1127957135,-0.2391540438,-0.05198006608,0.269479975
4.576238958,0.0649043861,-0.240501827,0.1560224247,0.2939331644
4.586274958,0.110967947,-0.2529663366,0.2375016207,0.36429778
4.596311958,0.1819546799,-0.2146928018,0.1770284738,0.3324749393
4.606348958,0.2735921706,-0.1133482754,-0.0003490787745,0.2961429202
4.616384958,0.3325081307,0.00902517736,-0.1835903654,0.3799322744
4.626421958,0.4016899013,0.08636454463,-0.2128188423,0.4627153239
4.636458958,0.4737819772,0.1352589619,-0.1355473027,0.5110160663
4.646494958,0.5289480449,0.1576292396,0.04156259358,0.5534983835
4.656531958,0.5727278296,0.1837078214,0.2611225446,0.6557062709
4.666567958,0.595721055,0.1787242395,0.44924918,0.7672357883
4.676604958,0.6881016536,0.1698879272,0.6014650673,0.9295730314
4.686641958,0.8315449633,0.1774998325,0.7065804631,1.105544738
4.696678958,0.9472463775,0.2009132534,0.7827930719,1.245153335
4.706714958,1.032826007,0.2393826699,0.8813269148,1.378684428
4.716751958,1.100158449,0.2256773812,0.9966345191,1.501518984
4.726788958,1.177068411,0.1060889572,1.085860691,1.604941853
4.736824958,1.230330187,-0.001630788445,1.045096827,1.61429316
4.746861958,1.280981839,-0.02047461033,0.9140776813,1.573808022
4.756897958,1.320404498,-0.01672537565,0.8165917325,1.55260099
4.766934958,1.302214687,-0.04172280729,0.7558450091,1.506255477
4.776971958,1.220757783,-0.1626976061,0.7039679271,1.418552403
4.787008958,1.099762812,-0.2893424499,0.5611789209,1.26811635
4.797044958,0.9654139689,-0.280538882,0.3227470082,1.055884381
4.807081958,0.8113268995,-0.1802000767,0.08234220844,0.8351668365
4.817117958,0.6349365762,-0.04602635801,-0.1200743641,0.6478277042
4.827154958,0.4956979993,0.1546781498,-0.1500652814,0.5405195882
4.837191958,0.4092529824,0.3001691544,0.1381790431,0.5260066281
4.847227958,0.3106468532,0.3094580412,0.5438121057,0.6985680732
4.857264958,0.2472451285,0.164190985,0.9782625675,1.022294715
4.867301958,0.2359319356,-0.06334581077,1.29665457,1.319465666
4.877337958,0.2482559293,-0.1636735064,1.427270842,1.457917035
4.887374958,0.2318021934,-0.09195974529,1.46905563,1.490071574
4.897411958,0.1826617545,0.1327341342,1.473188442,1.490391845
4.907447958,0.114721494,0.3748182178,1.476990886,1.528120347
4.917484958,0.0440016865,0.5418328232,1.453194473,1.551545401
4.927521958,-0.05606807381,0.6194604582,1.415319718,1.545964033
4.937557958,-0.1555684615,0.6033893859,1.309604398,1.450290997
4.947594958,-0.2402357787,0.5585915279,1.097935191,1.255069484
4.957631958,-0.2346708374,0.4464173734,0.7175118327,0.877030275
4.967667958,-0.1306904958,0.235104847,0.1374809039,0.3020849114
4.977704958,-0.01262972999,0.0401668632,-0.4777373993,0.4795893136
4.987741958,0.06743900791,-0.1307577753,-0.9352679908,0.9467691536
4.997777958,0.1166280518,-0.259471364,-0.9773410463,1.017901278
5.007814958,0.135878986,-0.3475473887,-0.5319212079,0.6497633859
5.017851958,0.02076433986,-0.3113794363,0.295910006,0.430059348
5.027887958,-0.1991305105,-0.2485645527,1.180221888,1.222440592
5.037924958,-0.4349777711,-0.198824628,1.884141283,1.943894356
5.047961958,-0.6868463295,-0.135874089,2.272832605,2.378232053
5.057997958,-0.9073991378,-0.1083734643,2.386626438,2.555602425
5.068034958,-1.161060416,-0.1300391525,2.301873386,2.58139353
5.078071958,-1.513979934,-0.3150538266,2.070963331,2.584624397
5.088107958,-1.917944621,-0.5644785047,1.772999747,2.672204269
5.098144958,-2.275190494,-0.7674072933,1.488601702,2.825126682
5.108181958,-2.526426055,-0.8737506044,1.235268745,2.94485273
5.118217958,-2.629739924,-0.7925321943,0.9908304998,2.919826095
5.128254958,-2.607573422,-0.5594592547,0.6698172641,2.749743438
5.138291958,-2.408665178,-0.2585252845,0.4297622374,2.460324947
5.148327958,-2.106103636,-0.09210007846,0.2953429357,2.128704394
5.158364958,-1.751457143,-0.07718909383,0.309884961,1.780333948
5.168401958,-1.199463028,-0.1356004393,0.4308414142,1.281687699
5.178437958,-0.6891024046,-0.2000823641,0.5505409352,0.9044282159
5.188474958,-0.161256706,-0.2614079618,0.4593748033,0.5525966501
5.1985115,0.418319346,-0.2873444563,0.1623071583,0.5328241037
5.2085475,0.8196352082,-0.2602969909,-0.1779996233,0.8782028604
5.2185845,1.028609141,-0.2243418771,-0.5330718669,1.180055786
5.2286215,1.237736709,-0.2466349715,-0.9056493585,1.553390399
5.2386575,1.479404763,-0.2044572508,-1.363015205,2.021942548
5.2486945,1.743685462,-0.06562739432,-1.763529596,2.480883428
5.2587315,1.927543703,0.1685372204,-1.814753691,2.652764686
5.2687675,1.836093689,0.4042215264,-1.459786624,2.380254621
5.2788045,1.609180937,0.7290922433,-0.8787101396,1.973111831
5.2888415,1.279737551,1.013594953,-0.2691964531,1.654560262
5.2988775,1.074336779,1.300691487,0.09870787069,1.689893814
5.3089145,1.004579423,1.595066636,0.3908910441,1.925152773
5.3189515,0.9156760177,1.710035174,0.7335801275,2.073842489
5.3289875,0.729289733,1.677950333,1.05883603,2.11388613
5.3390245,0.5690997054,1.599495317,1.292176187,2.133536745
5.3490615,0.4459697691,1.515978951,1.322614453,2.060677123
5.3590975,0.2318748633,1.425326058,1.245701348,1.907116193
5.3691345,-0.04734400978,1.28779136,1.172693086,1.742371119
5.3791715,-0.3208592712,1.077188101,1.214301873,1.654634073
5.3892075,-0.4851967289,0.8023344666,1.368081232,1.658554407
5.3992445,-0.5689124483,0.5147303939,1.397056525,1.593855604
5.4092815,-0.6201816391,0.2451088482,1.314883264,1.474320729
5.4193175,-0.5873531047,0.03725378036,1.337170511,1.460957388
5.4293545,-0.5402871848,-0.1794545567,1.455738012,1.563101832
5.4393915,-0.4126407129,-0.3664081675,1.535875272,1.632004949
5.4494275,-0.2593756159,-0.5077523267,1.443588667,1.552107076
5.4594645,-0.1144360037,-0.5543932271,1.168357303,1.298270479
5.4695015,-0.02943758793,-0.5393617898,0.8057656127,0.9700700668
5.4795375,0.0282443174,-0.3767589086,0.6238166338,0.7293094058
5.4895745,0.01368376371,-0.1872097188,0.6337446213,0.6609591282
5.4996115,-0.02169004546,-0.0806021136,0.7030253559,0.7079631416
5.5096475,-0.005163639598,-0.0609823662,0.6627070498,0.6655269687
5.5196845,-0.003811544068,-0.1116911745,0.5518719077,0.5630737508
5.5297215,-0.08846544921,-0.1557101834,0.4706138096,0.5035366468
5.5397575,-0.1888040718,-0.07249144077,0.457659888,0.500354434
5.5497945,-0.1236590362,0.1629151225,0.5675412762,0.6032710789
5.5598315,0.02253235515,0.3196842366,0.8159385985,0.8766193671
5.5698675,0.1548706328,0.2864983642,1.203026029,1.246329752
5.5799045,0.1323067393,0.0497598052,1.622310567,1.62845715
5.5899415,-0.08865361992,-0.3182791507,1.991514727,2.018735245
5.5999775,-0.3950931822,-0.5680768812,2.113549188,2.223937979
5.6100145,-0.4460550288,-0.6607757145,1.541434219,1.735398826
5.6200515,-0.06685432289,-0.7584288937,0.02364716336,0.7617368808
5.6300875,0.9324571612,-0.4954684961,-1.798615375,2.085661204
5.6401245,1.831662084,0.05307693064,-3.009393497,3.523386491
5.6501615,2.080436406,0.6175548506,-3.140120866,3.817060215
5.6601975,1.684065351,0.9361439037,-2.151998139,2.88851822
5.6702345,1.248724358,0.7631815106,-1.231180372,1.912475791
5.6802715,0.9565910321,0.1197147238,-0.7071811183,1.195618314
5.6903075,1.048947876,-0.7551100141,-0.5884326468,1.420118221
5.7003445,1.29506208,-1.733957303,-0.7633599968,2.294888277
5.7103815,1.428348192,-2.408045374,-0.8366039743,2.922116919
5.7204175,1.150330117,-2.420455504,-0.9689824516,2.849700198
5.7304545,1.103338823,-1.602172757,-1.182009528,2.276282193
5.7404915,1.229682023,-0.6147370774,-1.292362859,1.886854873
5.7505275,1.02771247,0.1966939026,-1.300904472,1.669501081
5.7605645,0.7916561352,0.5985467219,-1.209986701,1.564942628
5.7706015,0.7011196753,0.5742170423,-1.005964921,1.353979111
5.7806375,0.7024431194,0.2314421511,-0.6801998726,1.004820219
5.7906745,0.7093060695,-0.217388953,-0.3066298892,0.8027421417
5.8007115,0.6712526093,-0.639791227,-0.09064368322,0.9317344885
5.8107485,0.6717395362,-0.9068744963,-0.1319628865,1.136252419
5.8207845,0.8319810194,-0.9341581893,-0.3594571437,1.301558058
5.8308215,1.021853633,-0.8128132617,-0.5801930429,1.42880167
5.8408585,1.108096921,-0.707790252,-0.6595833211,1.47101869
5.8508945,1.195991682,-0.6507149953,-0.6908075988,1.526774786
5.8609315,1.2051952,-0.5533910143,-0.8524253704,1.576504391
5.8709675,1.093585301,-0.358393389,-1.161293866,1.634924486
5.8810045,0.8476879562,-0.2029942775,-1.629725422,1.848184649
5.8910415,0.6634090812,-0.08334621191,-2.182870268,2.282976305
5.9010775,0.6436608412,0.03069495857,-2.732120869,2.807084948
5.9111145,0.7364750109,0.1801041824,-3.155845199,3.245641982
5.9211515,0.6871419062,0.3089008015,-3.289266965,3.374442306
5.9311885,0.4881374033,0.3448623472,-3.086891908,3.144218474
5.9412245,0.4083297801,0.2129111552,-2.733523616,2.772041798
5.9512615,0.4623367835,0.1200667262,-2.348768786,2.396849209
5.9612985,0.6468004306,0.09805195928,-1.984093734,2.089160819
5.9713345,0.8368197365,0.04394825757,-1.612010112,1.816803601
5.9813715,0.9715346881,-0.03477280676,-1.175193867,1.525178489
5.9914085,1.07935771,-0.09062891901,-0.7418175387,1.312828979
6.0014445,1.142066613,-0.1219963074,-0.4265888804,1.225225416
6.0114815,1.227562115,-0.1088763249,-0.2736327356,1.262393629
6.0215185,1.368630578,-0.006376388669,-0.2378640018,1.389161474
6.0315545,1.501973261,0.1335749638,-0.1597209348,1.516336614
6.0415915,1.637329433,0.2333027351,0.03505054951,1.654238913
6.0516285,1.665505996,0.3843965417,0.3466470636,1.744085752
6.0616645,1.542345069,0.6123075593,0.6815150575,1.793937467
6.0717015,1.357675235,0.7276035422,0.9855932218,1.828683394
6.0817385,1.116176969,0.608118614,1.168245036,1.726399647
6.0917745,0.7961340791,0.2626955187,1.108770082,1.390039389
6.1018115,0.4603173014,-0.06743126035,0.8190301676,0.9419391744
6.1118485,0.3318588705,-0.2103623539,0.470286731,0.6128231713
6.1218845,0.29220225,-0.3164782083,0.2516774641,0.4988809048
6.1319215,0.006667799279,-0.3649533802,-0.0453666459,0.3678227316
6.1419585,-0.2691820543,-0.4039999169,-0.1853150748,0.519631204
6.1519945,-0.4404154989,-0.3777476728,-0.1544711584,0.6004335557
6.1620315,-0.4621639983,-0.3352553719,-0.1082652909,0.5811308793
6.1720685,-0.461466864,-0.4084613425,-0.03219769299,0.617113463
6.1821045,-0.4594637541,-0.5053116989,0.1040714485,0.6908528937
6.192141583,-0.4101398588,-0.4381499952,0.2937478884,0.6681900508
6.202178583,-0.2815037457,-0.2828912169,0.4484675534,0.6003290313
6.212214583,-0.0922153417,-0.1572824997,0.568661018,0.5971740177
6.222251583,0.09465955094,-0.02519857585,0.7130059683,0.7197033484
6.232288583,0.3556742144,0.1216834813,0.8279360618,0.9092794613
6.242324583,0.5584561649,0.3458592975,0.9149683584,1.126347654
6.252361583,0.5551003017,0.5411808586,1.029885442,1.289060545
6.262398583,0.4881056821,0.5508620936,1.064547517,1.294201537
6.272434583,0.3702532965,0.5552948678,0.9521611816,1.162777197
6.282471583,0.1853095199,0.4770550293,0.7239887204,0.8866119706
6.292508583,-0.1671792776,0.3548534846,0.3737954666,0.5418421886
6.302544583,-0.5911021931,0.2461268485,-0.1627578324,0.6606590197
6.312581583,-0.8850880632,0.04994516194,-0.8430334264,1.223348175
6.322618583,-1.060083241,-0.2222169989,-1.552866696,1.893291273
6.332654583,-1.22776706,-0.3906945777,-2.145150465,2.502343846
6.342691583,-1.353769587,-0.4111288422,-2.384355379,2.772520441
6.352728583,-1.34179142,-0.2626095647,-2.081194205,2.490127972
6.362764583,-1.183769978,0.03878165781,-1.363789376,1.806304747
6.372801583,-0.8118048363,0.3932135582,-0.5030044242,1.032791095
6.382838583,-0.2393147326,0.5578892773,0.3002907034,0.6772639763
6.392875583,0.2222305206,0.5653210884,0.9556413712,1.132353641
6.402911583,0.5278230406,0.4422313517,1.482865584,1.634948339
6.412948583,0.6685017867,0.2091665983,1.854552033,1.982424916
6.422985583,0.6826663012,-0.04736478567,2.113296003,2.221327688
6.433021583,0.576658328,-0.2565161812,2.25744858,2.344015672
6.443058583,0.2633130578,-0.2185613197,2.13444012,2.161697815
6.453095583,-0.07314490367,-0.07172253191,1.491328259,1.494842559
6.463131583,-0.4953339005,0.1267261201,0.4173567116,0.6600013691
6.473168583,-0.9311230458,0.3061783379,-0.8180606262,1.276698276
6.483205583,-1.165740527,0.3919645929,-1.926213169,2.285363077
6.493241583,-1.343444282,0.379475525,-2.630751784,2.978204016
6.503278583,-1.472317499,0.3467410576,-2.802420189,3.184573299
6.513315583,-1.476557023,0.4956292945,-2.289074416,2.768705604
6.523351583,-1.303989317,0.7201103354,-1.382484094,2.032291638
6.533388583,-0.9408941817,0.8784418255,-0.4079345083,1.350315691
6.543425583,-0.5398594244,0.758699035,0.3667460635,1.00078724
6.553461583,-0.2983853151,0.3093808579,0.7069196016,0.82733647
6.563498583,-0.2056033416,-0.4301983666,0.5704970437,0.7435121019
6.573535583,0.012182418,-1.085858352,0.3274451729,1.134220928
6.583571583,0.1502535983,-1.247767754,0.07826556623,1.259216427
6.593608583,0.132954428,-0.8102790785,-0.1965220676,0.8443044404
6.603645583,0.1178799406,-0.00314170897,-0.3538769996,0.3730073479
6.613681583,0.2910628104,0.6408098119,-0.2986716825,0.7645649407
6.623718583,0.4461140857,0.8153106076,-0.186442491,0.9478976562
6.633755583,0.4740336999,0.4937552619,-0.04993814528,0.6862915019
6.643791583,0.3852770228,-0.002933548093,-0.06042739235,0.3899980253
6.653828583,0.2966888186,-0.3431491131,-0.1839235105,0.4894930302
6.663865583,0.08347309649,-0.4784519291,-0.3111887439,0.576820978
6.673901583,-0.3667873594,-0.5162413144,-0.5131493068,0.8150829852
6.683938583,-0.8150164926,-0.4827624965,-0.8366546988,1.263844372
6.693975583,-1.124448733,-0.4234886867,-1.072372334,1.610499936
6.704012583,-1.264331161,-0.4318466967,-1.093812831,1.726687976
6.714048583,-1.245061077,-0.4084502327,-1.005324066,1.651570512
6.724085583,-1.075289802,-0.3191264123,-0.9118558124,1.445534797
6.734122583,-0.711753714,-0.1163215846,-0.7211803758,1.019914308
6.744158583,-0.1994981907,0.02629843712,-0.4112913217,0.4578773714
6.754195583,0.2013844659,0.1190703607,-0.07777907789,0.2465421645
6.764232583,0.4851627054,0.2391786021,0.2138490486,0.5816533934
6.774268583,0.6731990013,0.2589749354,0.4610126084,0.8560359441
6.784305583,0.7400464171,0.2136420572,0.6252691553,0.99210541
6.794342583,0.7345337353,0.1479673004,0.6493595376,0.9915149718
6.804378583,0.7071414303,0.1127103442,0.6250398713,0.9504880141
6.814415583,0.6371755482,0.1001078403,0.5739954329,0.8634147415
6.824452583,0.4575932298,0.06172847092,0.4587537559,0.6508893736
6.834488583,0.1109367375,0.0008911156654,0.1806842262,0.212024865
6.844525583,-0.2332657515,-0.05516438663,-0.1983884257,0.3111494622
6.854562583,-0.4318150487,-0.09494825721,-0.4643279797,0.6411551143
6.864598583,-0.4984843437,-0.1075835055,-0.5653526634,0.7613701371
6.874635583,-0.4878295474,-0.1497045082,-0.4958029568,0.7114841383
6.884672583,-0.4075819943,-0.1397414374,-0.2708716073,0.5089422158
6.894708583,-0.2415894091,-0.1024262613,-0.01495425403,0.262831146
6.904745583,-0.09270833507,-0.06368436456,0.1847076952,0.2162578701
6.914782583,0.0248195301,-0.04389037013,0.2168043045,0.2225903864
6.924818583,0.08870028801,-0.02083947659,0.1324237201,0.1607422363
6.934855583,0.1363210355,-0.005246121883,0.09178484045,0.1644244613
6.944892583,0.1866455356,0.03328235149,0.09233747542,0.210880251
6.954928583,0.2014691044,0.07134597123,0.1700358617,0.2731158031
6.964965583,0.2099591884,0.08729951441,0.2663307327,0.3501944106
6.975002583,0.1943380594,0.1134336448,0.2511740919,0.3372282574
6.985039583,0.159469066,0.1226745844,0.2047887149,0.2870850996
6.995075583,0.1482833424,0.1221033114,0.1898426469,0.2700692483
7.005112583,0.1573910386,0.1008592075,0.1812250936,0.2603594694
7.015149583,0.1827822802,0.06746400476,0.1516235644,0.2468814679
7.025185583,0.1479769483,-0.005615081191,0.09347877882,0.1751199259
7.035222583,0.08236863054,-0.06971869111,0.03736019969,0.1141975118
7.045259583,-0.02488370329,-0.06697108448,-0.04468493365,0.08426783574
7.055295583,-0.07891365699,-0.05328392208,-0.09974355876,0.1378960446
7.065332583,-0.08777569704,-0.06323880672,-0.1027461771,0.1491995193
7.075369583,-0.008744291738,-0.07009642124,-0.0755611559,0.1034381902
7.085405583,0.06625180386,-0.007887309194,-0.06331189692,0.09197775521
7.095442583,0.09813520901,0.01677098393,-0.08050914288,0.1280371323
7.105479583,0.1325210763,0.02106459439,-0.03401208401,0.1384282292
7.115515583,0.1746855676,0.0168271172,0.04413178705,0.180958045
7.125552583,0.1576289472,0.002538861036,0.1106480312,0.1926040436
7.135589583,0.1246382987,0.02352159441,0.1836300534,0.2231769867
7.145625583,0.1184044359,0.1017883301,0.2392535195,0.2856969044
7.155662583,0.09779870175,0.1747533953,0.3057498101,0.3654945713
7.165699583,0.08392881386,0.1680992639,0.3710868902,0.4159409674
7.175736583,0.0729660885,0.1260881889,0.4043478262,0.4297900023
7.185772583,0.05779789947,0.05280328095,0.2850500089,0.2956049581
7.195809583,0.03039002627,-0.02123942614,0.1190878292,0.1247260117
7.205846583,-0.02860626005,-0.05368094802,-0.03282860756,0.06912076221
7.215882583,-0.04638625413,-0.05794415295,-0.1458125284,0.1636169394
7.225919583,-0.001918983087,-0.07571734965,-0.1934269901,0.2077277065
7.235956583,0.06022295907,-0.09392265558,-0.179317074,0.2111939466
7.245992583,0.05332741074,-0.0525986284,-0.06674881719,0.1003286252
7.256029583,0.01597218119,0.02104295969,0.07029924653,0.07509927288
7.266066583,-0.03261964269,0.05360493422,0.1636980647,0.1753128245
7.276102583,-0.05584661052,0.08702177167,0.2417331775,0.2629193066
7.286139583,-0.02903486095,0.1123501557,0.33401642,0.3535994195
7.296176583,0.03677562431,0.07485839367,0.3767279184,0.3858499062
7.306212583,0.08906705461,0.02601484716,0.278071357,0.2931439784
7.316249583,0.08385791637,-0.0250886482,0.04062828161,0.09649998794
7.326286583,0.01891026087,-0.088654899,-0.1583502012,0.1824611611
7.336322583,-0.1071143395,-0.1223062098,-0.2403813744,0.2901990624
7.346359583,-0.1684975324,-0.09280759156,-0.1925657684,0.2721878811
7.356396583,-0.1424573229,-0.02012494683,-0.1063421416,0.1789071084
7.366433583,-0.06026871353,0.04373717308,0.01558407225,0.07607970457
7.376469583,0.0527641046,0.0868545413,0.1522959211,0.1830896219
7.386506583,0.09438948266,0.1110123128,0.2517348399,0.2908668727
7.396543583,0.1047175658,0.05865458965,0.2490627354,0.2764749097
7.406579583,0.09447645999,0.02460274458,0.1833376926,0.2077108713
7.416616583,0.05045474678,-0.0238928926,0.1256788838,0.137519939
7.426653583,-0.0132756646,-0.05423818767,0.04815174781,0.07373340552
7.436689583,-0.03408458948,-0.07876491845,0.0002537691593,0.08582386624
7.446726583,-0.09255791545,-0.05810787499,0.04014639795,0.1164269132
7.456763583,-0.1396278553,0.0008127629757,0.1070994291,0.1759741068
7.466799583,-0.1350989675,0.08753164887,0.1774196526,0.2395647171
7.476836583,-0.02994461462,0.1484672374,0.225335246,0.2715053841
7.486873583,0.04189259581,0.1575625813,0.2521991088,0.300308753
7.496909583,0.1004091912,0.08871629477,0.2707576597,0.3020965026
7.506946583,0.1329174444,0.0437377578,0.2185998382,0.2595494707
7.516983583,0.1002783597,-0.01577344894,0.1111233368,0.1505089602
7.527019583,0.06017939731,-0.04902422547,-0.03765965022,0.08627388828
7.537056583,-0.0008530356735,-0.1033968991,-0.1727706776,0.2013488352
7.547093583,-0.04127498366,-0.1301099038,-0.2072283194,0.2481446911
7.557130583,-0.04941555038,-0.1000020057,-0.2105494648,0.238271641
7.567166583,-0.03916947439,-0.02654168129,-0.175854426,0.1821084504
7.577203583,-0.02859186128,0.04010605216,-0.09294266224,0.1051871115
7.587240583,-0.008845083117,0.06037250161,0.01080799341,0.06196682312
7.597276583,0.03148623303,0.04422658503,0.09655397572,0.1107702303
7.607313583,0.07078544252,0.0414737159,0.1538496725,0.1743570179
7.617350583,0.08643916972,0.02876888573,0.1766204113,0.1987313476
7.627386583,0.09747622781,0.03219652355,0.1094873589,0.1500856851
7.637423583,0.1018623704,0.04894587278,0.00603673853,0.1131728023
7.647460583,0.1316288643,0.0460667038,-0.04643208168,0.1469837995
7.657496583,0.1187436475,0.02010389686,-0.06215999544,0.1355289103
7.667533583,0.05614540324,0.007875030041,-0.04369273424,0.07157777189
7.677570583,0.004736244678,0.0120873642,-0.0203600049,0.02414676348
7.687606583,-0.009437552243,0.04908152819,0.0416549065,0.06506300821
7.697643583,0.03525469042,0.06449771225,0.09466583669,0.1198518616
7.707680583,0.07127595082,0.05754069507,0.1180978956,0.1494600472
7.717717583,0.07569651894,0.04017621875,0.1268406525,0.1530772441
7.727753583,0.08386120543,0.02215100706,0.1273481908,0.1540809222
7.737790583,0.07016300641,0.0270597446,0.06313640736,0.09819003606
7.747827583,0.0251266551,-0.009278946519,-0.05905527011,0.06484575986
7.757863583,-0.009875947237,-0.02847710967,-0.1553453171,0.15824237
7.767900583,-0.003235483691,-0.006334873438,-0.1654510599,0.1656039016
7.777937583,0.042087235,0.00533090651,-0.1052381142,0.1134672402
7.787973583,0.06097513027,0.008604177833,0.03244970798,0.06960590447
7.798010583,0.01701832116,0.0221819973,0.08617334068,0.09059530287
7.808047583,-0.003039090335,0.03553762257,0.06873687051,0.07743975759
7.818083583,0.044648754,0.06802943051,0.07636748694,0.1115952853
7.828120583,0.08830026537,0.0679154098,0.07935139418,0.136770185
7.838157583,0.08348442547,0.01914612293,0.0374853301,0.09349531161
7.848193583,0.06396342292,0.001645991206,-0.04851442136,0.08029743358
7.858230583,0.06750800505,0.01738903463,-0.1032456024,0.1245767381
7.868267583,0.09505065657,0.01923850894,-0.1186499459,0.1532401944
7.878304583,0.1060480998,0.01918296039,-0.05098823212,0.1192224192
7.888340583,0.1029312415,0.008025888205,0.02512658201,0.1062572373
7.898377583,0.09940193519,0.02204868078,0.08799584471,0.1345739861
7.908414583,0.07484436035,0.0411076802,0.1223483098,0.1491999616
7.918450583,0.05271177202,0.04700985968,0.1070128173,0.1282193467
7.928487583,0.04781304784,0.07330478847,0.1058288292,0.1373296059
7.938524583,0.04155762345,0.0656051749,0.1111965732,0.1356309438
7.948560583,0.0564513588,0.0719172442,0.1025063682,0.1373550197
7.958597583,0.0722563827,0.03849514425,0.04826408744,0.09503832442
7.968634583,0.1035481227,0.006244826317,-0.000367205143,0.1037369096
7.978670583,0.09231182076,-0.01805678666,-0.04804825209,0.105622698
7.988707583,0.07057793945,-0.04276653528,-0.1110900807,0.1383879623
7.998744583,0.07618563853,-0.03299993098,-0.1377288258,0.1608181471
8.008781583,0.06506920449,-0.02530441046,-0.08536350131,0.110278021
8.018817583,0.01084271125,0.002480973601,0.009606463686,0.01469706644
8.028854583,0.008457924351,0.05065033615,0.08087861381,0.09580367012
8.038891583,0.04808625899,0.09838992834,0.1150082269,0.1588073
8.048927583,0.07217854165,0.09308182597,0.1533635496,0.1933761788
8.058964583,0.09142333634,0.09066166341,0.2156955993,0.2512018217
8.069001583,0.1170896894,0.07454907596,0.2303989347,0.2689818381
8.079037583,0.1316600007,0.03477163732,0.2156212666,0.2550214759
8.089074583,0.05602823965,-0.01814566433,0.07513964474,0.09546934055
8.099111583,0.0009057337046,-0.02609904706,-0.0875567919,0.09136833379
8.109147583,0.02031783186,-0.01409295917,-0.1436825339,0.1457947061
8.119184583,0.03710175276,-0.02556695044,-0.1023245928,0.111805775
8.129221583,0.0175987304,-0.0382390362,-0.008055635914,0.04285828358
8.139258583,0.03438667126,0.01360705554,0.01970745564,0.04190440226
8.149294583,0.02264765494,0.07746566713,0.08915425122,0.1202594128
8.159331583,-0.00970148094,0.09495702803,0.1197404516,0.1531297869
8.169368583,0.02493325844,0.09167381644,0.1329773784,0.1634280856
8.179404583,0.08450505696,0.04151640058,0.1404957283,0.1691264788
8.189441583,0.108963156,0.03142059803,0.1226336539,0.1670306452
8.199479208,0.08111162536,0.007682071924,0.08275630094,0.1161323183
8.209515208,0.05000531517,-0.02516933978,0.04828338325,0.0739277506
8.219552208,0.03154148921,-0.03257016063,-0.02825776599,0.0534245472
8.229589208,0.06030087322,-0.0034516114,-0.05761970557,0.08347538202
8.239625208,0.08675206885,0.03781218946,-0.0884625987,0.129542713
8.249662208,0.09128219917,0.07519168496,-0.05015215337,0.1284580393
8.259699208,0.04803370714,0.08173062623,0.04215784013,0.1037517025
8.269736208,0.0404725264,0.0497650677,0.1160613104,0.1326077491
8.279772208,0.02973681919,0.03754789531,0.1443759406,0.1521135598
8.289809208,0.03008392453,0.03117326081,0.134578346,0.1413794395
8.299846208,0.03620186627,0.007485020757,0.09187678792,0.09903506861
8.309882208,0.02255439185,-0.03247075796,0.01815085374,0.0435029218
8.319919208,0.02772493847,-0.05187942088,-0.05044984974,0.07749408921
8.329956208,0.05554599054,-0.0591574502,-0.09552296542,0.1253379348
8.339992208,0.1027628417,-0.0161383152,-0.07165528893,0.1263136068
8.350029208,0.1075531731,0.01924611032,0.005868338719,0.1094190806
8.360066208,0.05589930855,0.03519322157,0.08126284897,0.1047231883
8.370102208,0.003326407894,0.0632218498,0.1347928657,0.1489200589
8.380139208,-0.01433824986,0.1226582122,0.1481788965,0.1928927365
8.390176208,0.02065580092,0.128482039,0.1691190914,0.213390636
8.400213208,0.04554980993,0.0824971962,0.1760146397,0.1996540157
8.410249208,0.06531676099,0.01404384255,0.1461178992,0.1606672003
8.420286208,0.0857899826,-0.0251020968,0.08431568027,0.1228786813
8.430323208,0.1120267316,-0.007824159265,0.0293834281,0.1160801099
8.440359208,0.1123002351,-0.01416663408,0.009747235402,0.1136091762
8.450396208,0.09984223053,-0.03259998143,-0.04123683058,0.1128348616
8.460433208,0.0677752959,-0.0175890094,-0.09106453657,0.1148721629
8.470469208,0.0627700793,-0.0006975728273,-0.1210590718,0.1363666687
8.480506208,0.04647286601,0.002492668033,-0.08209841609,0.09437208588
8.490543208,0.05012130931,0.02603999019,0.00861828424,0.05713581678
8.500580208,0.07311088018,0.05223551631,0.08591189705,0.1243165476
8.510616208,0.1043807662,0.08330469668,0.1420679715,0.1949828848
8.520653208,0.116013217,0.09593819082,0.1649108503,0.2232908228
8.530690208,0.07309531197,0.03879627585,0.1798054627,0.1979345348
8.540726208,0.02147090279,-0.03569959044,0.125976434,0.1326858031
8.550763208,0.01584902421,-0.01827313364,0.01312868021,0.02752201347
8.560800208,0.02294966362,0.009843202829,-0.008174992204,0.02627558182
8.570836208,0.02080439329,-0.01360530138,0.01163654387,0.02744696994
8.580873208,0.02975246049,-0.006934213042,-0.002048864365,0.03061845948
8.590910208,0.04763785064,0.01808953106,-0.008863867298,0.05172198847
8.600946208,0.07687955685,0.06027134478,0.04539485872,0.10772091
8.610983208,0.0874009636,0.09857236147,0.1105508944,0.171979473
8.621020208,0.06272892952,0.1036518377,0.158766523,0.1997133718
8.631057208,0.06197383471,0.06078765392,0.1887288254,0.2077365269
8.641093208,0.04305049069,0.02640602589,0.1502219137,0.1584842147
8.651130208,0.0597031416,-0.005589353442,0.06032345809,0.08505660224
8.661167208,0.0997649011,-0.0246629709,-0.02131017745,0.1049543772
8.671203208,0.1406372309,-0.04192395151,-0.1099908042,0.1833969068
8.681240208,0.1562968053,-0.02938810587,-0.1727659998,0.2348200221
8.691277208,0.117068274,-0.001992731094,-0.1749656492,0.2105277421
8.701313208,0.04625118345,0.0516847086,-0.04820503056,0.08446422938
8.711350208,0.01146448955,0.09776719987,0.135622074,0.1675804489
8.721387208,0.0102348201,0.07924029708,0.2764616916,0.287775682
8.731424208,0.08130502202,0.08028285563,0.3442168877,0.3626859651
8.741460208,0.1239774902,0.05287929475,0.2965760404,0.3257667657
8.751497208,0.1093535308,0.01948935449,0.0747023461,0.13385989
8.761534208,0.07222056851,-0.01061094224,-0.1248304528,0.1446065163
8.771570208,0.03945562251,-0.05940888047,-0.2071544983,0.2190870772
8.781607208,0.005214546919,-0.04403128803,-0.1891959449,0.1943220301
8.791644208,0.03805981904,-0.01249082208,-0.1226575544,0.1290327327
8.801680208,0.07903052822,0.002835899591,-0.03005593099,0.08460038832
8.811717208,0.1173260631,0.02337541401,0.03320275627,0.1241540901
8.821754208,0.1210342211,0.05079242349,0.08829587996,0.158193917
8.831790208,0.09836500458,0.09514764726,0.1800485607,0.2261553296
8.841827208,0.05841609634,0.1221307933,0.2436422934,0.2787291484
8.851864208,0.05080002487,0.1066923898,0.2728848036,0.2973718625
8.861901208,0.03187499978,0.0250588274,0.2067803496,0.210717995
8.871937208,0.01050503455,-0.05717582881,0.1029840126,0.1182587756
8.881974208,-0.01680862539,-0.105249297,-0.01980978191,0.108408357
8.892011208,-0.0006327418238,-0.0803524375,-0.1641746128,0.182784622
8.902047208,-0.001578602046,-0.08301350534,-0.2457519688,0.2593988517
8.912084208,0.01031163789,-0.07342114806,-0.2782379296,0.2879467664
8.922121208,0.01494087853,-0.01249900818,-0.2416081202,0.2423921179
8.932157208,0.02600286037,0.02810581148,-0.1025608204,0.1094751445
8.942194208,0.05256632254,0.04816760838,0.05712086499,0.09135715614
8.952231208,0.09162331112,0.08269073904,0.1641494697,0.2053719501
8.962268208,0.1336619411,0.1258104461,0.219614988,0.2862246073
8.972304208,0.1515677235,0.1557715791,0.2429050326,0.3259454165
8.982341208,0.1362844174,0.1416172242,0.2378525267,0.308549356
8.992378208,0.1130054093,0.06511283934,0.1972312617,0.2364531137
9.002414208,0.07410856135,0.005778218508,0.1565966944,0.1733435645
9.012451208,0.01316573694,-0.03174628794,0.1012549909,0.106928652
9.022488208,-0.08575804219,-0.09995990574,0.01423614286,0.1324729871
9.032524208,-0.1226650827,-0.1005972522,-0.1005066935,0.1877980966
9.042561208,-0.1101173233,-0.08761760294,-0.1853520584,0.2327188321
9.052598208,-0.1183644556,-0.06351771891,-0.1738435686,0.2196957698
9.062635208,-0.1564747799,-0.09823322296,-0.05845103346,0.193779891
9.072671208,-0.2388588325,-0.1454337019,0.04864181757,0.2838494846
9.082708208,-0.3325226026,-0.1358629793,0.1145960712,0.3770441485
9.092745208,-0.4214887927,-0.1337369317,0.06522210918,0.4469813115
9.102781208,-0.4823680287,-0.163562994,-0.07278489791,0.5145186192
9.112818208,-0.4618658634,-0.2533849972,-0.2820884673,0.5975767197
9.122855208,-0.4275298436,-0.3424573874,-0.4888143647,0.7341650445
9.132891208,-0.4358658535,-0.3899759549,-0.6365256301,0.8644218678
9.142928208,-0.4737096179,-0.3977574295,-0.7279560562,0.9552653006
9.152965208,-0.4468638814,-0.401210795,-0.8194252932,1.015930727
9.163002208,-0.3751635689,-0.3403886425,-0.8776904583,1.013386734
9.173038208,-0.3200145312,-0.1862104297,-0.8678560994,0.9435347548
9.183075208,-0.2502077664,-0.004525744915,-0.7739649457,0.8134163423
9.193112458,-0.1640898281,0.1234072405,-0.5630337308,0.5993010935
9.203148458,-0.1699551702,0.2257808769,-0.2363486228,0.3684052602
9.213185458,-0.212805613,0.2815598059,0.09968037229,0.3667401394
9.223222458,-0.3197161771,0.3081061649,0.3467796127,0.5633861398
9.233258458,-0.4155236826,0.3151409501,0.4509601483,0.6894481885
9.243295458,-0.4448240802,0.3327796608,0.4970975304,0.7454640969
9.253332458,-0.43465643,0.3283620894,0.556681206,0.7788721584
9.263369458,-0.4347096397,0.2894406831,0.5438284413,0.7539879001
9.273405458,-0.4329524783,0.1748516285,0.4505928336,0.6488873879
9.283442458,-0.4172164515,0.05274071574,0.2218486243,0.4754660479
9.293479458,-0.4205907335,-0.0308259362,-0.03343558509,0.4230422459
9.303515458,-0.4571472334,-0.06301778197,-0.3072910631,0.5544209874
9.313552458,-0.5173008299,-0.04691455007,-0.6036933681,0.7963961365
9.323589458,-0.5872390839,-0.03386707306,-0.8651270577,1.046155603
9.333625458,-0.6643819848,-0.04205200553,-0.9574494034,1.166139423
9.343662458,-0.697614708,-0.05709104419,-0.8998444621,1.140020054
9.353699458,-0.7065708882,-0.03890152574,-0.7751875985,1.049605431
9.363736458,-0.6808636046,0.06032280028,-0.6336995246,0.9320886094
9.373772458,-0.645419976,0.1190849787,-0.508356271,0.83016521
9.383809458,-0.5866750469,0.1685763967,-0.3892356243,0.723954407
9.393846458,-0.5158148331,0.1757819206,-0.2923520118,0.6184124226
9.403882458,-0.4489898559,0.1876593697,-0.2234888414,0.5354952773
9.413919458,-0.4186248996,0.123803097,-0.240756254,0.4985354423
9.423956458,-0.3654091707,0.04196488202,-0.3405232747,0.5012394776
9.433992458,-0.3473540651,-0.05075967908,-0.532880736,0.6381169723
9.444029458,-0.3528974448,-0.01573953509,-0.7614121431,0.8393645163
9.454066458,-0.3106344279,0.06556775272,-0.8650336484,0.9214532494
9.464103458,-0.3022477665,0.09888752639,-0.7223270148,0.7892330274
9.474139458,-0.3498841553,0.03131593287,-0.3826061243,0.5194102965
9.484176458,-0.364207641,-0.01323458791,-0.01904438138,0.3649452678
9.494213458,-0.3708959055,-0.009333910346,0.2440031397,0.4440590353
9.504249458,-0.2740906457,0.04748523831,0.3570169544,0.452594339
9.514286458,-0.1252953795,0.1704340571,0.3170868304,0.381170248
9.524323458,0.07143886887,0.263780762,0.1962447634,0.3364458493
9.534359458,0.2755425824,0.3328691232,0.05380132757,0.4354539594
9.544396458,0.4521662097,0.3508446336,0.03377461396,0.5733122732
9.554433458,0.6085568628,0.3446980405,0.1247339007,0.7104341914
9.564470458,0.7993001271,0.1677648032,0.3063286114,0.8722745786
9.574506458,1.064688727,-0.01960805297,0.4452822827,1.154219595
9.584543458,1.325043094,-0.1309349459,0.507925989,1.425086654
9.594580458,1.635679057,-0.2050817335,0.4749869422,1.715551541
9.604616458,1.943240261,-0.1276979274,0.3695236371,1.982179909
9.614653458,2.218136726,0.08991497397,0.2858417219,2.238285221
9.624690458,2.424835361,0.3342519897,0.3040563103,2.46657681
9.634726458,2.597759455,0.5493476647,0.3715589797,2.681080588
9.644763458,2.601060208,0.6153697461,0.4166275638,2.705138196
9.654800458,2.463768169,0.6643086022,0.4114218608,2.584710324
9.664837458,2.29018144,0.6987890482,0.2951626953,2.41254185
9.674873458,1.945245271,0.6840669286,0.04173274755,2.062442327
9.684910458,1.369641269,0.4643040061,-0.2899266598,1.474975554
9.694947458,0.7012546729,0.1603786004,-0.6072287408,0.9413852322
9.704983458,0.02758277804,-0.02176801443,-0.8240096565,0.8247584919
9.715020458,-0.3564569373,0.02146045089,-1.024961355,1.085388354
9.725057458,-0.5588729252,0.1385912901,-1.16574886,1.300198791
9.735094458,-0.6246412374,0.1239305663,-1.15103668,1.315454636
9.745130458,-0.515595928,-0.001617924571,-1.123403982,1.236073738
9.755167458,-0.1845325711,-0.1180435896,-1.071946218,1.094100203
9.765204458,0.3102892229,-0.08984890044,-0.9144665211,0.9698459904
9.775240458,0.742963593,0.05400020599,-0.7561252369,1.061431249
9.785277458,1.009921147,0.1599406439,-0.7078270894,1.243599985
9.795314458,1.101023983,0.1382971752,-0.7335589314,1.330221269
9.805350458,1.111444014,0.06485731602,-0.7627184111,1.349538307
9.815387458,1.023236134,-0.004484814405,-0.7782455461,1.285573191
9.825424458,0.6350729625,-0.1262022096,-0.8391918057,1.059946957
9.835461458,0.1925901805,-0.2150781333,-1.069576926,1.107855759
9.845497458,-0.1845214614,-0.2142185926,-1.316149186,1.34617475
9.855534458,-0.329577287,-0.1570439333,-1.467366954,1.512101109
9.865571458,-0.3185802823,-0.09747425437,-1.508864205,1.54520737
9.875607458,-0.2277560663,-0.171973629,-1.426676911,1.454941498
9.885644458,-0.06201220706,-0.3170687771,-1.246572144,1.287757832
9.895681458,0.1257854493,-0.3743013239,-1.079185071,1.1491579
9.905717458,0.2378607859,-0.3303863955,-0.984093411,1.064975476
9.915754458,0.3053312957,-0.2268357146,-0.9861418368,1.056956652
9.925791458,0.4367615739,-0.2030048025,-1.141640936,1.239078548
9.935828458,0.6968363705,-0.3530940574,-1.419881277,1.620592232
9.945864458,1.077775819,-0.5686750513,-1.58702686,2.000911364
9.955901458,1.406021768,-0.6602190596,-1.704186789,2.305870558
9.965938458,1.584841902,-0.7636563045,-1.753552638,2.483916597
9.975974458,1.72512713,-0.8085880637,-1.684333153,2.543001464
9.986011458,1.962163167,-0.701219151,-1.426657323,2.525300716
9.996048458,2.076224364,-0.6082712263,-1.225130843,2.486291832
10.00608546,2.235479714,-0.5310189825,-1.168193727,2.577601074
10.01612146,2.538214627,-0.3868956417,-1.191335837,2.830459822
10.02615846,2.917983974,-0.2334161711,-1.185028445,3.15806998
10.03619546,3.100509489,-0.2123609322,-1.260463374,3.353658327
10.04623146,3.087994693,-0.2582756084,-1.55568213,3.467356977
10.05626846,3.40290117,-0.2649952286,-1.702881837,3.814415472
10.06630546,3.554497837,-0.5578600413,-2.034359177,4.133313436
10.07634246,3.611485385,-0.9527581823,-2.334955178,4.404837173
10.08637846,3.802192031,-1.193201537,-2.430536104,4.667751054
10.09641546,3.822690031,-1.519127676,-2.843285794,5.000498183
10.10645246,3.97405544,-1.839375585,-3.16312966,5.402018922
10.11648846,4.650893456,-1.994306919,-3.06645472,5.917027512
10.12652546,4.862444549,-2.110279425,-2.938435196,6.060614461
10.13656246,4.712068781,-1.761048623,-2.397178323,5.572373674
10.14659846,4.099320926,-1.446402347,-2.013082328,4.790512735
10.15663546,3.287223364,-1.027534715,-1.649191387,3.818572674
10.16667246,2.52255783,-0.5009929454,-1.23721119,2.853941742
10.17670946,1.490783445,-0.1541144782,-0.9825532544,1.792093036
10.18674546,0.6872206244,-0.1658276206,-0.9115376508,1.153547518
10.19678221,-0.03847921059,-0.3374743903,-0.6376564085,0.7224785873
10.20681921,-0.6124717198,-0.9059898126,0.3470696712,1.147343238
10.21685521,-1.418329865,-1.418931543,2.465819957,3.17888257
10.22689221,-2.543347605,-1.564644742,5.198222662,5.994851879
10.23692921,-3.398787653,-1.668320553,7.318322486,8.239714497
10.24696621,-3.745207114,-1.992641047,8.212739489,9.243715951
10.25700221,-3.31712544,-2.594989629,7.839549136,8.899203504
10.26703921,-2.38642427,-3.143129843,6.394979306,7.514655437
10.27707621,-1.360636411,-3.185040346,4.241504745,5.475963473
10.28711221,-0.6218645409,-2.637940936,0.3533916807,2.733191096
10.29714921,-0.2025763477,-2.032426672,-2.689229496,3.376943979
10.30718621,-1.013521863,-1.419458377,-1.165934801,2.097973453
10.31722221,-1.433469476,-0.8430597389,1.412744604,2.182070525
10.32725921,-1.209918142,-0.05781376004,3.514460489,3.717348097
10.33729621,-0.2460711537,0.5599931055,4.982963265,5.020365145
10.34733321,0.7899877784,0.6650605541,5.591681803,5.686237035
10.35736921,1.542444911,0.4287400711,5.124371159,5.368624975
10.36740621,1.283782509,-0.03506633699,4.004940726,4.205814713
10.37744321,-0.583149249,-0.6702780247,2.939402618,3.070736626
10.38747921,-2.880626698,-1.154248556,2.067223452,3.728768256
10.39751621,-3.7362331,-1.077150679,1.015232173,4.0187545
10.40755321,-3.821206592,-0.8226149493,0.1256902859,3.910768879
10.41759021,-4.003569554,-0.3913184756,-0.1820121288,4.026763929
10.42762621,-4.10190101,0.2273467612,0.4879638872,4.137074715
10.43766321,-4.130831571,1.027127164,1.4458875,4.495481102
10.44770021,-4.0814302,1.62755552,1.99084946,4.823949733
10.45773621,-3.988733998,1.604749625,1.955986314,4.723463002
10.46777321,-3.689483149,1.344317563,1.441662886,4.183045242
10.47781021,-3.272166198,1.033053902,0.8293091342,3.530159435
10.48784721,-2.767319938,0.662584843,0.5843704399,2.904921191
10.49788321,-2.151527731,0.1729717487,0.7358913857,2.280466385
10.50792021,-1.696003757,-0.4677363217,0.8895567977,1.971425197
10.51795721,-0.8422396669,-0.6534006214,0.848976244,1.362740141
10.52799321,-0.02392797589,-0.6395240092,0.6646854553,0.9226972748
10.53803021,0.3974460652,-0.5487062252,0.4792582601,0.8298978107
10.54806721,0.5751686767,-0.1591009837,0.3545754495,0.6941583962
10.55810321,0.6668316758,0.2684942025,0.396641196,0.8210224473
10.56814021,0.7726958075,0.4755230588,0.4907860458,1.03152893
10.57817721,1.016849513,0.4805779767,1.077073203,1.557249116
10.58821421,1.616829095,0.4460706335,1.65572799,2.356809392
10.59825021,1.985870849,0.5284842145,2.181421913,2.996928453
10.60828721,1.880233004,0.3784072387,2.985674266,3.548622129
10.61832421,1.176566793,0.2261831653,3.749722627,3.93648168
10.62836021,0.08049335539,0.3825172466,3.806973007,3.826988647
10.63839721,-1.051995372,0.7120698291,2.401797916,2.717051883
10.64843421,-2.084872688,0.8607750481,0.26543874,2.271141901
10.65847121,-2.601033603,0.7057793945,-1.581621256,3.124904183
10.66850721,-2.794135269,0.2990242696,-1.913938402,3.399965826
10.67854421,-2.889545456,-0.02391043425,-0.6490792367,2.96164625
10.68858121,-3.218750129,-0.3513597733,0.6440368903,3.301301198
10.69861721,-3.625404975,-0.810483731,1.034121019,3.856144628
10.70865421,-3.773238081,-1.314857537,0.4795535445,4.024443758
10.71869121,-3.627037809,-1.869125049,-0.3901683283,4.098934379
10.72872821,-3.288974897,-2.537408003,-1.172388373,4.316281935
10.73876421,-2.815137298,-3.11114265,-2.016057976,4.6549647
10.74880121,-2.383943443,-3.463247944,-2.811056526,5.057599376
10.75883821,-1.551168956,-3.010079375,-2.830062316,4.413157111
10.76887421,-0.09478541225,-1.54300712,-2.000250029,2.528014127
10.77891121,1.527603508,-0.7959218252,-1.072988046,2.029376105
10.78894821,3.251845955,-0.8910063225,0.02710856885,3.371813941
10.79898521,4.621266199,-1.013244705,1.894215743,5.096157317
10.80902121,4.992322319,-0.8595880634,3.383117115,6.091605305
10.81905821,3.963398305,-0.8988965553,3.012845985,5.059029756
10.82909521,2.558378165,-1.214615795,1.21573846,3.081981565
10.83913121,2.101102512,-1.670705048,-0.9293552864,2.840702091
10.84916821,2.330437619,-2.194396884,-2.345053319,3.968071604
10.85920521,2.505627509,-2.516432287,-2.297576559,4.229593209
10.86924121,2.137716607,-2.334534763,-1.186465837,3.380471274
10.87927821,1.341140479,-1.673436867,-0.2483248168,2.158868673
10.88931521,0.6232664108,-0.6319325691,0.235851244,0.9183820556
10.89935221,-0.131815829,0.4631024033,0.4580238041,0.6645487596
10.90938821,-0.7285434821,1.317078309,0.7117090559,1.664932629
10.91942521,-0.8945702004,1.789595899,1.18390271,2.324765569
10.92946221,-0.7406983817,1.725149642,1.723950378,2.548878241
10.93949821,-0.500978035,1.148477939,2.195301449,2.52771221
10.94953521,-0.4298969427,0.2909521884,2.846866629,2.893806172
10.95957221,-0.6568025315,-0.5491932982,3.482348458,3.586049864
10.96960921,-1.072070325,-1.230048936,3.726027077,4.067632352
10.97964521,-1.481164629,-1.485504432,3.267635776,3.88304206
10.98968221,-1.434296272,-1.198810771,2.343139526,2.997441559
10.99971921,-0.9536098292,-0.4772707915,1.362843297,1.730462645
11.00975521,-0.1492218205,0.3168436593,0.6626842457,0.7495381682
11.01979221,0.9135406145,0.9511092675,0.477276054,1.4024827
11.02982921,1.9997115,1.286065262,0.9455696154,2.558693385
11.03986621,2.655030301,1.707517948,1.183374122,3.37122793
11.04990221,2.713598059,2.322605858,0.8247714025,3.665836912
11.05993921,2.130859285,2.749120479,0.2516670853,3.487342975
11.06997621,1.061282505,2.881611954,-0.2368824005,3.079954753
11.08001221,-0.1104036176,2.695666988,-0.6962887788,2.786328683
11.09004921,-0.7670245931,2.4757994,-1.028603001,2.788536091
11.10008621,-1.100756473,2.372199018,-1.437037446,2.983968769
11.11012321,-1.373879916,2.216463692,-1.920014536,3.238319493
11.12015921,-1.541588001,2.02319158,-2.336412304,3.45378346
11.13019621,-1.72832965,1.795748339,-2.279576783,3.37761836
11.14023321,-1.839368276,1.521419785,-1.492042204,2.814992674
11.15026921,-1.711589657,1.373702745,-0.4713463926,2.244719539
11.16030621,-1.432271381,1.01024099,0.4148248672,1.8011296
11.17034321,-1.338515371,0.4476271623,0.8286405051,1.636654686
11.18038021,-1.425168476,-0.06535900712,0.7070991111,1.592283309
11.19041621,-1.360057391,-0.6048523593,0.391578092,1.539134784
11.20045346,-1.137909681,-1.304864645,-0.2957445663,1.7564097
11.21049046,-0.7851217255,-2.099521717,-1.402183948,2.64396055
11.22052646,-0.3010345423,-2.711164448,-2.456835126,3.671113359
11.23056346,0.3457169178,-3.19269786,-3.111189428,4.4712794
11.24060046,1.131099429,-3.49144731,-3.242305053,4.897155531
11.25063746,1.197892758,-3.554834636,-3.067905414,4.846012792
11.26067346,0.2101521465,-3.134026313,-2.724920608,4.158302199
11.27071046,-0.8402992684,-2.315274619,-1.864088257,3.088919626
11.28074746,-1.682584251,-1.816793638,-0.8430480444,2.615828528
11.29078346,-2.106305657,-1.646122184,-0.635147953,2.747663496
11.30082046,-2.138173567,-1.696954953,-0.8758374757,2.866798493
11.31085746,-1.929979068,-1.937470229,-0.9332109404,2.889548884
11.32089446,-1.755824136,-2.175713276,-0.8970377254,2.936209008
11.33093046,-1.707579636,-2.275336382,-0.5987870425,2.907151491
11.34096746,-1.612554488,-2.059889874,0.1027858651,2.618022767
11.35100446,-1.456967243,-1.666120831,0.8631876093,2.375669383
11.36104046,-1.270299999,-1.17911501,1.456206374,2.263738345
11.37107746,-1.113405755,-0.7435401285,1.836373039,2.272617486
11.38111446,-0.9865461718,-0.3547137362,1.919255567,2.186924122
11.39115146,-0.6466321769,0.04800388634,1.968328909,2.072379367
11.40118746,-0.3413287286,0.4024948436,2.171227292,2.234442963
11.41122446,-0.03860346392,0.8385872036,2.522898722,2.658897645
11.42126146,0.05170239642,1.303029789,2.802104439,3.090687473
11.43129746,0.106378102,1.783889017,2.818148029,3.336994852
11.44133446,0.1842394795,2.120481062,2.756876811,3.482923179
11.45137146,0.08801579833,2.220481898,2.929956148,3.677353623
11.46140846,-0.02335787237,2.166668218,2.848835387,3.579226148
11.47144446,-0.2225630079,1.959076275,2.482024931,3.169852031
11.48148146,-0.4239874542,1.681110168,2.095362593,2.719639894
11.49151846,-0.4341291574,1.480689835,1.699710746,2.295632186
11.50155446,-0.01906294629,1.40122559,1.293894099,1.907343306
11.51159146,0.8934326246,1.478750314,0.978036865,1.98531621
11.52162846,1.908788028,1.597721856,0.6342112291,2.568737189
11.53166546,2.493645687,1.621815893,0.4229805636,3.004574539
11.54170146,2.922841256,1.626787196,0.1873968297,3.350306726
11.55173846,3.271168079,1.613913966,-0.08772986948,3.648692289
11.56177546,3.386514348,1.556227675,-0.2783075845,3.73734921
11.57181146,3.350401359,1.508133742,-0.2325057596,3.681537122
11.58184846,3.347956054,1.444185668,0.005864172578,3.646164611
11.59188546,3.243463386,1.341326712,0.2420916849,3.518212681
11.60192246,2.912730251,1.122146757,0.1797831702,3.126584854
11.61195846,2.477786284,0.7328900099,-0.7715330887,2.69663048
11.62199546,2.160676576,0.2672200942,-2.167129564,3.071869202
11.63203246,2.044727752,-0.02689368367,-2.973996207,3.609194964
11.64206846,1.891655686,-0.2277724385,-2.943935087,3.50670719
11.65210546,1.520713734,-0.4313964611,-2.413320732,2.88492463
11.66214246,0.9768361393,-0.4279390025,-1.626963782,1.945341045
11.67217946,0.3356847037,-0.3381883353,-1.065931626,1.16758974
11.68221546,-0.1135274926,-0.162622177,-0.8457079428,0.8686520527
11.69225246,-0.6180455782,0.1402747035,-0.3219821924,0.7108655719
11.70228946,-1.578805383,0.525350107,0.3836375731,1.707570484
11.71232546,-2.279629262,1.069633498,0.6086951494,2.590624476
11.72236246,-2.711698884,1.387642508,0.1439672202,3.04952277
11.73239946,-2.630976318,1.435566287,-0.7448978519,3.088326368
11.74243646,-2.283894806,1.391912729,-1.708603776,3.173786917
11.75247246,-1.753952149,1.302391273,-2.299999353,3.172155134
11.76250946,-1.377175553,1.084505306,-2.278328403,2.874638164
11.77254646,-1.390106817,0.7931040519,-1.643959883,2.294344154
11.78258246,-1.030627307,0.7077154076,-1.069675013,1.645374845
11.79261946,-0.7545292394,0.7238782811,-0.9033573961,1.38179909
11.80265646,-0.8053497295,0.8134038305,-1.15613019,1.626914563
11.81269346,-0.8122547796,1.029159656,-1.628161876,2.090415872
11.82272946,-0.4517251103,1.070888311,-1.857483827,2.191142058
11.83276646,0.3025093563,0.7108933693,-1.208290862,1.434171573
11.84280346,1.469887981,0.5028681475,-0.4949556953,1.630468703
11.85283946,2.336287905,0.6700920832,-0.2046659964,2.439088507
11.86287646,2.819987563,0.7759144074,0.5513392264,2.976297695
11.87291346,2.956801592,0.7661285073,1.88044058,3.58687682
11.88295046,2.598726,0.8508833134,2.673470957,3.824241911
11.89298646,1.853486378,0.8600839072,2.661163153,3.355137167
11.90302346,-0.08985701345,-0.1005335176,3.551684741,3.554243347
11.91306046,-0.8776878271,-0.3283059561,2.26837878,2.454315182
11.92309646,-1.112850854,0.2844389749,-0.7587124836,1.376585336
11.93313346,-1.282616282,0.7959598321,-3.008313516,3.365799577
11.94317046,-1.416092135,1.318061226,-2.492205518,3.154947016
11.95320746,-0.9440922432,1.791195112,-0.7628932428,2.163722763
11.96324346,0.6069592938,1.583525986,-0.2902388281,1.720521058
11.97328046,1.662305815,0.8209122401,0.5835433513,1.943625574
11.98331746,1.67060623,0.2023124921,1.624916672,2.339275467
11.99335446,1.048850959,0.1290223217,0.7216341197,1.279644832
12.00339046,0.3710645977,0.5331760204,-0.3686657774,0.7469136897
12.01342746,-0.5269316326,1.004608952,0.04925168216,1.135483078
12.02346446,-1.543005951,1.407212554,0.5153449363,2.150975346
12.03350046,-2.193651364,1.804983432,0.7420116663,2.936094823
12.04353746,-2.375794909,2.179193539,1.187121018,3.435482825
12.05357446,-2.270643699,2.437987211,1.808725065,3.790922158
12.06361146,-2.090499902,2.639261237,1.879426673,3.855921983
12.07364746,-1.834761547,2.833660108,1.648300856,3.756710696
12.08368446,-1.704019851,2.941731271,1.877590647,3.883659764
12.09372146,-1.679354834,3.042854188,2.543728843,4.306942152
12.10375746,-1.616974837,3.113643504,3.077361531,4.666855203
12.11379446,-1.568793634,3.062057029,3.121763533,4.645719995
12.12383146,-1.57465386,2.831339933,2.578797519,4.140799106
12.13386846,-1.448149057,2.451546904,1.727076885,3.330167034
12.14390446,-1.202357838,2.060658199,0.7891899258,2.512926048
12.15394146,-0.908187781,1.610392188,-0.1653294379,1.856206311
12.16397846,-0.5387947926,1.100243087,-1.093349805,1.642025723
12.17401446,-0.2198648833,0.6539221931,-1.756197188,1.886844817
12.18405146,-0.1162322684,0.2244740242,-2.128471574,2.143429442
12.19408846,-0.003811148924,0.01485485137,-2.489026094,2.48907334
12.20412546,-0.02196282264,0.1901713336,-2.764874048,2.77149346
12.21416146,-0.4795657871,0.2628849685,-3.281380241,3.326642171
12.22419846,-1.516428017,-0.1713386214,-3.093717071,3.449637106
12.23423546,-2.460783166,-0.8792159969,-2.678263628,3.741867263
12.24427146,-3.381960536,-1.59818554,-2.378862505,4.432926901
12.25430846,-4.29432089,-2.730043938,-1.710876296,5.368559352
12.26434546,-5.228745128,-4.372338535,-0.6869227087,6.850473172
12.27438246,-6.008884149,-5.964456419,-0.6103066421,8.488457062
12.28441846,-6.589021497,-7.572075858,-2.841817851,10.43204035
12.29445546,-6.38492385,-8.659564998,-4.810280661,11.78533489
12.30449246,-4.51929719,-7.373602062,-2.403464957,8.976118218
12.31452946,-2.01561505,-4.255500056,3.159296518,5.670373819
12.32456546,-0.4786331197,-1.484318032,7.529673604,7.689491158
12.33460246,0.7059568575,0.3413902706,7.668878267,7.708866082
12.34463946,1.171864755,1.012667584,6.380524989,6.565810063
12.35467546,1.520103284,0.7075470078,5.63176856,5.87606619
12.36471246,2.266515711,-0.4887190551,5.498766038,5.967609884
12.37474946,3.53647204,-1.897312136,5.462291107,6.778130419
12.38478646,5.078549454,-2.711709409,4.841872583,7.522550271
12.39482246,6.743784431,-2.552323666,2.938279367,7.786300161
12.40485946,7.38521054,-1.784697102,1.75797708,7.798523057
12.41489646,6.259011077,-0.9399615508,3.19560188,7.090177625
12.42493246,4.451017499,-0.04356584966,4.819901962,6.560861962
12.43496946,3.088035623,1.182237423,3.859297986,5.082108842
12.44500646,2.230934673,2.459825976,1.245011669,3.546528924
12.45504346,1.966754254,2.553671449,-0.9770577487,3.368085808
12.46507946,1.364559162,1.080497625,-1.679074168,2.418426531
12.47511646,0.768522065,-0.2145589006,-2.160603048,2.303229736
12.48515346,0.795273369,-0.6365536237,-2.867082793,3.042667249
12.49518946,1.074832842,-0.4728859645,-3.329871785,3.530854412
12.50522646,1.150525634,0.3804274517,-3.176941368,3.400204514
12.51526346,0.6782469025,1.511872451,-2.140950848,2.707295275
12.52530046,0.3561196992,2.14209471,-0.1843162242,2.179303434
12.53533646,0.2724606612,2.50652418,1.617253311,2.995397561
12.54537346,0.2593593898,2.692291975,2.263430282,3.526871136
12.55541046,0.3956170562,2.583924358,1.87377417,3.216241219
12.56544746,0.5946872672,2.046010339,0.5843107983,2.209350665
12.57548346,0.7187917882,1.056314126,-0.7029817942,1.458301947
12.58552046,0.1879186937,-0.2953960723,-1.014938935,1.073626247
12.59555746,-0.4948913759,-1.458569233,-0.7546583167,1.715182456
12.60559346,-0.6170198303,-1.940066977,-0.5278284493,2.103134855
12.61563046,-0.4132978669,-1.92289312,-0.01641868919,1.966876369
12.62566746,-0.4670054197,-1.755893717,0.77544166,1.975491477
12.63570446,-0.3137177378,-1.094028082,1.177242293,1.637441809
12.64574046,-0.2099322912,-0.3560878319,1.332654999,1.39529189
12.65577746,-0.341934354,0.0851787293,1.084844445,1.140641043
12.66581446,-0.6624424633,0.2617851073,0.5882781342,0.9238141711
12.67585046,-1.078404322,0.4324062753,0.8721589923,1.452787794
12.68588746,-1.475916168,0.499685508,1.584726712,2.222469998
12.69592446,-1.492786847,0.5802946383,1.922483815,2.502218707
12.70596146,-1.160430817,0.6002155173,2.01282242,2.3996484
12.71599746,-0.8872646892,0.2616476977,1.783537891,2.009155433
12.72603446,-0.3715803221,-0.2975320601,1.461156042,1.536741436
12.73607146,0.008137862384,-1.070876032,1.235036611,1.634673402
12.74610746,0.3263079625,-1.608015295,1.372673343,2.13925739
12.75614446,0.4725301614,-1.903894932,1.475541654,2.454653506
12.76618146,0.439521752,-2.003110487,1.603145441,2.60301869
12.77621846,0.09972572476,-1.825542242,1.804236158,2.568621772
12.78625446,-0.08348917633,-1.580287213,1.310145558,2.05444871
12.79629146,-0.3221137547,-1.357894213,1.11252721,1.784755098
12.80632846,-0.8444712567,-1.221992058,1.46095519,2.083455389
12.81636546,-1.047303566,-0.8648546505,1.636987664,2.127098243
12.82640146,-1.284758994,-0.5494722104,1.134665938,1.799997826
12.83643846,-1.511293577,-0.3044522399,0.6027529165,1.655297714
12.84647546,-1.750277467,-0.08532023191,0.7618378204,1.910797639
12.85651146,-2.219170368,0.1431626433,0.8995093435,2.398818401
12.86654846,-2.089572095,0.3799210829,0.8281575251,2.279582518
12.87658546,-1.697192935,0.4260369033,1.649773185,2.404937185
12.88662246,-1.457055389,0.3707076252,2.399298524,2.831442734
12.89665846,-1.183795706,0.2152120346,1.914108263,2.260862432
12.90669546,-0.5970252764,-0.02258720934,0.9150322393,1.092809847
12.91673246,0.2522880596,-0.3758391416,1.079489565,1.170556298
12.92676946,0.7962755817,-0.798223874,1.515732198,1.889089795
12.93680546,1.265857869,-1.101557541,0.7655209816,1.844409807
12.94684246,1.539241514,-1.328229534,-0.006921349168,2.033102564
12.95687946,1.210715702,-1.332130212,0.4532966226,1.856308498
12.96691546,0.8155596989,-0.9497100288,1.291084512,1.798328662
12.97695246,0.5369784647,-0.3001399183,1.030638417,1.200268882
12.98698946,0.4060593063,0.301929751,0.3845623103,0.635557948
12.99702646,0.09448691189,0.584360792,0.4524636868,0.7450695938
13.00706246,-0.0536423564,0.7693468148,0.3892634717,0.863885452
13.01709946,0.02384553015,0.715186395,0.3828096074,0.8115438278
13.02713646,-0.2661535621,0.4052775335,0.6793587506,0.8346351956
13.03717246,-0.1009504241,0.3144042009,0.708653301,0.7818123117
13.04720946,0.2073299879,0.008755035996,0.5065676808,0.5474241407
13.05724646,0.5087557089,-0.5591098836,-0.1984913367,0.7815593669
13.06728346,1.186982439,-1.047410863,-0.4274776572,1.639735946
13.07731946,1.529163253,-1.205085418,-0.6369810551,2.048491148
13.08735646,1.528796048,-1.150699588,-0.883006162,2.107374381
13.09739346,0.9144273448,-1.171735824,-1.02044672,1.802901472
13.10743046,1.153089053,-0.8640003723,-0.8446238691,1.670179777
13.11746646,1.533364477,-0.6890870556,-1.006846097,1.959537357
13.12750346,1.533449262,-0.6194940796,-1.670822577,2.350933354
13.13754046,1.648001479,-0.7519531024,-2.053215278,2.73807146
13.14757646,1.363737921,-0.8898111516,-2.103220081,2.6599022
13.15761346,1.414883516,-0.6373280874,-1.475100482,2.141028698
13.16765046,1.722157622,-0.07529518068,-0.5836801761,1.819939226
13.17768746,1.5553044,0.1117590022,-0.5248215187,1.645265777
13.18772346,1.164997492,0.1226741458,-0.5393407398,1.289634265
13.19776046,1.054265261,0.298882767,-0.5167675638,1.211550603
13.20779746,1.087571586,0.66086123,-0.3665555173,1.324353604
13.21783446,1.244888,1.173504753,-0.171675421,1.719398728
13.22787046,1.153136415,1.516265026,-0.3796193665,1.942393906
13.23790746,0.8506143415,1.65032677,-0.8228944463,2.030831967
13.24794446,0.8583993244,1.732781574,-1.104351341,2.226875225
13.25798046,1.159012867,1.731871455,-0.9124147332,2.27490444
13.26801746,1.54217857,1.439005473,-0.5135147578,2.170886662
13.27805446,1.704401967,0.9555470118,-0.3768384308,1.989990794
13.28809146,1.554520288,0.4686593047,-0.60025177,1.731033523
13.29812746,1.381473695,0.112351179,-0.7763488555,1.58865034
13.30816446,1.329957386,-0.1200007989,-0.5100192922,1.42944273
13.31820146,1.266243201,-0.3434876668,-0.03889860213,1.312580939
13.32823846,1.034660717,-0.4938340531,0.08161777496,1.149372147
13.33827446,0.7555257511,-0.6286223142,-0.2145653325,1.005993766
13.34831146,0.8581034553,-0.8236915679,-0.6482924938,1.354655859
13.35834846,1.241021236,-1.067744701,-1.027953376,1.933106463
13.36838446,1.662813061,-1.158454604,-1.365191538,2.443504099
13.37842146,1.972635384,-1.183865873,-1.559667592,2.779458897
13.38845846,2.047679134,-1.216394957,-1.433335574,2.779758514
13.39849546,1.972257653,-1.170847412,-1.024408793,2.511990703
13.40853146,1.692906341,-1.067391822,-0.5890479201,2.086201005
13.41856846,1.07063688,-0.946519861,-0.3503809494,1.471370105
13.42860546,0.2185548878,-0.7488587558,-0.3167787552,0.8419646399
13.43864246,-0.6317694318,-0.5356096315,-0.4258322507,0.9313127284
13.44867846,-1.325763763,-0.3428511974,-0.380987615,1.421389483
13.45871546,-1.722398527,-0.08308637626,-0.0144028616,1.724461503
13.46875246,-1.780218719,0.1281811632,0.5511374974,1.867983308
13.47878846,-1.693171805,0.2636715652,1.01930242,1.993823181
13.48882546,-1.552956743,0.3561013901,1.156564638,1.968787598
13.49886246,-1.373519728,0.4749702776,0.9461514133,1.734172916
13.50889946,-1.242639161,0.5770196493,0.7506322163,1.562226771
13.51893546,-1.172880124,0.656276209,0.7828673315,1.55538661
13.52897246,-0.9951791471,0.7636475337,0.9516413641,1.574534971
13.53900946,-0.7732656187,0.7745027433,0.981701315,1.470214844
13.54904646,-0.7208365595,0.5966908522,0.7086205566,1.173792321
13.55908246,-0.9078188217,0.402476096,0.4326512736,1.083193956
13.56911946,-1.234727878,0.3166669272,0.2122188449,1.292233614
13.57915646,-1.474278363,0.4066487787,0.2765329546,1.554133326
13.58919346,-1.363080109,0.649350986,0.6714924914,1.652436459
13.59922946,-1.318595077,0.9143700421,1.048085924,1.916572371
13.60926646,-1.285119767,1.071972092,1.444927679,2.210989141
13.61930346,-1.308041437,1.073684084,1.838695554,2.498914015
13.62933946,-1.388381596,1.105125001,2.312172087,2.914625959
13.63937646,-1.407019596,1.140716783,2.827184901,3.357664871
13.64941346,-1.481251752,1.261735875,3.025130693,3.596873626
13.65945046,-1.406205078,1.375794879,2.910838677,3.513289922
13.66948646,-1.46252429,1.462305019,2.883806999,3.548754158
13.67952346,-1.476819563,1.635753316,3.040266795,3.754984303
13.68956046,-0.9629048556,1.56764144,2.873255698,3.411786006
13.69959746,-0.4034976411,1.782130759,1.391002902,2.296451494
13.70963346,0.7489803779,2.362830901,-2.100548488,3.249037616
13.71967046,3.069023986,-0.02635391258,-7.538509331,8.139332018
13.72970746,5.495219702,-4.696428064,-15.12226091,16.76116497
13.73974346,7.157960258,-7.399340336,-11.81966346,15.67453594
13.74978046,4.369950532,-5.116602548,-0.4985552412,6.747195463
13.75981746,2.085470273,-1.239136679,4.849952558,5.422793172
13.76985446,2.446056953,0.8735610815,4.89731442,5.543463909
13.77989046,0.7894957352,2.130204397,4.112730346,4.698470515
13.78992746,-1.260032288,2.923060819,3.27027287,4.563622527
13.79996446,-2.431520775,3.287764816,2.172962746,4.630708138
13.81000146,-2.974102042,3.220986689,1.64921653,4.684010394
13.82003746,-3.137883722,2.486428761,1.543678381,4.29087231
13.83007446,-2.167181019,1.178717619,0.9509186482,2.643916615
13.84011146,-0.3152228111,-0.1574220289,-0.2904072279,0.4565999056
13.85014746,1.477734067,-1.126134412,-1.080431551,2.149234521
13.86018446,2.904304998,-1.689777788,-1.355902067,3.623369552
13.87022146,3.515467672,-1.925621139,-1.649690155,4.334513506
13.88025846,3.236467193,-1.794831204,-1.511519864,3.997603187
13.89029446,2.359659079,-1.532480963,-0.7389564961,2.909045475
13.90033146,1.192399299,-1.286320054,0.2468331921,1.771260002
13.91036846,-0.04779104769,-0.937569528,0.7419508553,1.196583334
13.92040546,-0.755095396,-0.430539844,0.5926006883,1.052002467
13.93044146,-1.301672065,-0.06938583836,0.01972324312,1.30366927
13.94047846,-1.52974622,0.06078268379,-0.2357696754,1.549001411
13.95051546,-1.474819815,0.00179312177,-0.08639436543,1.47734921
13.96055246,-1.386632109,-0.3081299192,0.2142753106,1.436525865
13.97058846,-1.115224239,-0.5833574098,0.450357812,1.336732258
13.98062546,-0.8346531969,-0.663049989,0.6428645235,1.24481165
13.99066246,-0.4781326711,-0.3763058956,0.5223352826,0.8019046861
14.00069846,-0.1934849507,-0.02907133296,0.1822793466,0.2674085427
14.01073546,0.1387649524,0.1848433506,-0.07177281797,0.2420208952
14.02077246,0.5125949907,0.2951310472,-0.2103360415,0.6277716224
14.03080946,0.9606185943,0.3733960287,-0.3266044164,1.081148983
14.04084546,1.451388853,0.3328833027,-0.4932003611,1.568625988
14.05088246,1.828625479,0.04507099606,-0.625107699,1.933044793
14.06091946,1.979118776,-0.3494593551,-0.5461574239,2.082623563
14.07095646,1.700808853,-0.5984329936,-0.19749731,1.813802081
14.08099246,0.8402840656,-0.5112458188,0.4297329283,1.073368524
14.09102946,-0.1872909951,-0.1630632763,0.7896278822,0.8277558465
14.10106646,-0.8615743625,0.1899879503,0.5741825438,1.052659203
14.11110346,-1.305711322,0.3748684307,0.2010705435,1.373258082
14.12113946,-1.454320062,0.420178651,-0.1011281794,1.517176275
14.13117646,-1.231044132,0.4080993267,-0.3064478946,1.332638371
14.14121346,-0.8295760596,0.2598142301,-0.3060812742,0.9216211907
14.15124946,-0.3831487459,0.0420678661,-0.1636027551,0.4187344365
14.16128646,0.004753786325,-0.08220191181,-0.1860736048,0.2034776135
14.17132346,0.4607290184,-0.07303493947,-0.1689476949,0.4961337062
14.18136046,0.8391017586,-0.0006259444356,-0.01783868551,0.8392915893
14.19139646,1.003607908,0.1298809122,0.1619702125,1.024857178
14.20143321,0.9252049327,0.2271847934,0.2912106353,0.996203158
14.21147021,0.7395874107,0.289658565,0.3697095054,0.8761145706
14.22150721,0.5152689224,0.3222996231,0.3870464998,0.7205443099
14.23154321,0.2967216361,0.3439153176,0.3320089978,0.5626290515
14.24158021,0.1404407644,0.29210906,0.2946335953,0.438018569
14.25161721,0.05376631737,0.2148961388,0.2481570017,0.3326455544
14.26165421,0.02482961655,0.16046989,0.1340000564,0.2105305455
14.27169021,0.05907325029,0.09626907013,0.05047667384,0.1237144994
14.28172721,0.139771843,0.09511132143,-0.005568888187,0.1691547932
14.29176421,0.2555034435,0.1038059118,-0.03210823059,0.2776483665
14.30180021,0.3685219359,0.1442846509,0.001844211817,0.3957649288
14.31183721,0.4958164054,0.1627841449,0.08203000367,0.5282627255
14.32187421,0.5792017937,0.1593384538,0.08351168811,0.6064962182
14.33191121,0.6298620701,0.1764020178,0.1101492637,0.6633074397
14.34194721,0.6167368251,0.1732437904,0.1209935099,0.6519333952
14.35198421,0.596431784,0.1567422169,0.1818495762,0.6429372162
14.36202121,0.5200238782,0.1670812637,0.2922397453,0.6194715904
14.37205821,0.3828657407,0.1824923314,0.3349407917,0.5404395992
14.38209421,0.2236220849,0.2136461502,0.3228148359,0.4470580864
14.39213121,0.1190680218,0.2213334846,0.2753260893,0.3727870178
14.40216821,0.099728356,0.2051182786,0.1637290549,0.2807604969
14.41220521,0.08912267625,0.1662674774,0.06358086884,0.1990734848
14.42224121,0.1483462,0.09840059951,0.0247091639,0.1797214951
14.43227821,0.1599751425,0.01785432681,-0.006521399617,0.1611004403
14.44231521,0.1922085035,-0.09512718201,-0.05016560197,0.2202495793
14.45235121,0.2168825841,-0.2034991845,-0.1053674108,0.3155190401
14.46238821,0.2169124049,-0.2958202878,-0.1556528807,0.3984826888
14.47242521,0.2447194237,-0.3478425269,-0.143961373,0.4490065665
14.48246221,0.2035936171,-0.3731185783,-0.04722971499,0.427666319
14.49249821,0.1022713101,-0.3756736654,0.06944094837,0.3954897838
14.50253521,-0.002973893881,-0.3075075562,0.07514841557,0.3165707276
14.51257221,-0.1556177974,-0.2542723122,0.06858140767,0.3058998482
14.52260921,-0.2494849044,-0.2690777546,0.07086766899,0.3737215301
14.53264521,-0.3190235013,-0.25375995,-0.005612742305,0.4076783161
14.54268221,-0.4163837349,-0.2630864051,-0.0969029814,0.5019761539
14.55271921,-0.415873273,-0.3101421654,-0.2298920542,0.5674408327
14.56275621,-0.3949595368,-0.3809060463,-0.3110537463,0.6307431212
14.57279221,-0.3842632252,-0.518420864,-0.3314739776,0.7254608303
14.58282921,-0.3867330891,-0.6327535182,-0.3576847064,0.8233333749
14.59286621,-0.3954910487,-0.686770535,-0.3270488048,0.8573376569
14.60290221,-0.4450906402,-0.6957445492,-0.2738075674,0.8701360466
14.61293921,-0.5130703694,-0.7616270283,-0.1965927458,0.9391302582
14.62297621,-0.5237608337,-0.7634348412,-0.1775793546,0.9427049352
14.63301321,-0.4314812458,-0.4757798977,-0.2917181736,0.7054375021
14.64304921,-0.4530726743,-0.339816931,-0.3106456107,0.6459497583
14.65308621,-0.6851223511,-0.5611830139,-0.1385351568,0.8963877513
14.66312321,-0.6189540893,-0.7791742301,-0.08661889851,0.9988590887
14.67316021,-0.5492874384,-0.9558555986,-0.1443262392,1.111848316
14.68319621,-0.4626925135,-0.8298029315,-0.2927537155,0.994163973
14.69323321,-0.3188708889,-0.5782647774,-0.3771518415,0.7604684794
14.70327021,-0.2072241533,-0.438670105,-0.2770510179,0.5586864749
14.71330721,-0.1520135736,-0.3660951953,-0.1442256671,0.4218232588
14.72334321,-0.1367061478,-0.3334263629,-0.03431204617,0.3619931309
14.73338021,-0.1776571226,-0.3029584225,-0.006784524322,0.351271816
14.74341721,-0.2188057333,-0.2744807281,-0.02936120868,0.352246646
14.75345321,-0.2585106665,-0.2543715687,-0.08951619387,0.3735583069
14.76349021,-0.2301212651,-0.2190266119,-0.1329528201,0.3443906295
14.77352721,-0.1207502657,-0.2022528505,-0.1023999488,0.2568513028
14.78356421,-0.02038397849,-0.1500579724,-0.03987274826,0.1565973745
14.79360021,0.04537848651,-0.1179035488,0.008101317286,0.1265941752
14.80363721,0.05761261582,-0.0529259263,0.06877728939,0.1041666104
14.81367421,0.04246949673,-0.02000654072,0.07559572756,0.08898670603
14.82371121,0.008991263509,0.01996151716,0.0596725899,0.06356196167
14.83374721,-0.03990549266,0.04353339761,0.03379807591,0.06804347866
14.84378421,-0.06680736244,0.07019114614,0.006531924605,0.0971220197
14.85382121,-0.07477302432,0.08230014503,-0.01232710004,0.1118761656
14.86385821,-0.06775753498,0.08888279423,-0.04122462451,0.1191247427
14.87389421,0.001758257747,0.07281961575,-0.05243782997,0.08975251484
14.88393121,0.08030799866,0.05514012069,-0.1197006905,0.1543310172
14.89396821,0.1548067886,0.0636646302,-0.1156713742,0.2034654608
14.90400521,0.1070262659,0.06675049827,-0.07148688912,0.1449849162
14.91404121,0.01415318549,0.1408171789,0.04435405433,0.1483141014
14.92407821,-0.02598678052,0.232973683,0.1577982241,0.2825815445
14.93411521,-0.3881118625,0.2391340171,0.725690918,0.8569966187
14.94415221,-4.751670803,-1.246629301,4.812837356,6.877198808
14.95418821,-4.533434588,-1.4065334,1.507861261,4.980362532
14.96422521,0.03569666684,1.584553927,-1.037876101,1.894537463
14.97426221,4.210308681,4.366784849,-1.51356522,6.25191081
14.98429821,8.130722349,3.971320113,-6.850011967,11.34912743
14.99433521,5.492283815,0.2825354138,-3.045232835,6.286370239
15.00437221,0.7625541043,-3.275704349,0.7127229631,3.437979314
15.01440921,-1.18407111,-4.260618416,0.2825959325,4.431112066
15.02444521,-0.4139869612,-1.770608528,-1.129521266,2.14062095
15.03448221,-0.07598632157,0.8367093703,0.6079776961,1.037059965
15.04451921,-1.414704591,1.885034445,2.42092562,3.378701644
15.05455621,-1.517818485,2.387234987,3.074139131,4.177678211
15.06459221,-0.9767364442,2.088382041,3.132046446,3.889096112
15.07462921,-0.194567855,1.056761291,2.334372795,2.569804939
15.08466621,0.2738274479,0.1797176814,0.8558668953,0.9163995083
15.09470321,0.3945081317,-0.3711388573,-0.5281368899,0.7565112636
15.10473921,0.7558771688,-0.5316953592,-1.676767441,1.914575488
15.11477621,1.347387936,-0.4811963198,-1.913379115,2.389147084
15.12481321,1.651081207,-0.3031490417,-1.069161628,1.99024498
15.13485021,1.624544789,-0.1246380794,0.0330385226,1.62965394
15.14488621,1.152703137,-0.2361832197,0.6674392015,1.352768318
15.15492321,0.5639335442,-0.1146624371,0.823207857,1.004410122
15.16496021,0.01773109674,0.06945118099,0.6241908556,0.628292991
15.17499621,-0.3726828146,0.238590226,0.328390156,0.5510516045
15.18503321,-0.6017901725,0.3485544254,0.2526885939,0.7399277834
15.19507021,-0.5585763252,0.3062255542,0.2596029264,0.6878773731
15.20510688,-0.2801775241,0.1286736815,0.2239501137,0.3810643183
15.21514288,0.09450854659,-0.05390372694,0.1444116086,0.1808098168
15.22517988,0.315533883,-0.1930101568,-0.01004960954,0.3700210083
15.23521688,0.3736341566,-0.3070940119,-0.2249418014,0.5333929407
15.24525388,0.3307992089,-0.3720787972,-0.4326284695,0.6595742115
15.25528988,0.2448527402,-0.3850667788,-0.5109566009,0.6850590752
15.26532688,0.1552383131,-0.3241099942,-0.4163018739,0.5499577006
15.27536388,0.03371387601,-0.1988540103,-0.2396346849,0.3132160996
15.28540088,-0.07943442464,-0.07441225111,-0.07932274282,0.1346815075
15.29543688,-0.1626812339,-0.04597519487,0.02158908963,0.1704259112
15.30547388,-0.2526172578,-0.07233663574,0.001458880305,0.2627740401
15.31551088,-0.3200181127,-0.1034087397,-0.05075090826,0.3401185302
15.32554788,-0.3399582875,-0.1392912018,-0.09972894073,0.3806829885
15.33558388,-0.2741566461,-0.1494206259,-0.1197246641,0.3343985425
15.34562088,-0.1703276378,-0.1305658405,-0.1441987699,0.2585579783
15.35565788,-0.04265192986,-0.1162585808,-0.1347075695,0.1829791628
15.36569388,0.04609769404,-0.06854120806,-0.09702811182,0.1274258572
15.37573088,0.08158152223,-0.05084446371,-0.04637952983,0.1067322118
15.38576788,0.08552020669,-0.03830876425,-0.01180786729,0.0944494198
15.39580488,0.06353643,-0.01264548093,-0.01471627235,0.06643308511
15.40584088,0.03152877152,-0.0110332574,0.004450315833,0.03369868712
15.41587788,-0.01011568308,-0.01645669609,0.01940866292,0.02738331767
15.42591488,-0.02466998756,-0.01708614886,0.01943322122,0.03575185108
15.43595188,-0.03336830556,-0.06823145181,0.017648651,0.07797723844
15.44598788,-0.0438950479,-0.02293497249,-0.05335993588,0.07280158618
15.45602488,0.05633149087,-0.0160772118,0.05870662987,0.08293480569
15.46606188,0.09813440502,-0.03930893049,0.04273554504,0.1140257878
15.47609888,0.1441829824,-0.04020618573,0.05321375549,0.1588614918
15.48613488,0.1740838891,-0.03373784959,0.07582552314,0.1928547456
15.49617188,0.1761228132,-0.007776942998,0.1080325717,0.2067625757
15.50620888,0.195288232,0.0100797227,0.09876941264,0.2190764506
15.51624588,0.1805380458,0.01337799087,0.09666207612,0.2052230824
15.52628188,0.17451249,0.02018049538,0.09086339235,0.1977827537
15.53631888,0.1428118104,-0.01217945784,0.1272745889,0.1916830023
15.54635588,0.08761526406,0.04739796862,0.03486285388,0.1055387157
15.55639288,0.0978818053,0.0574845618,0.09470559776,0.147832584
15.56642888,0.1114081693,0.00664185226,0.050190745,0.122372404
15.57646588,0.1431106031,-0.007264288366,0.01589507103,0.144173742
15.58650288,0.1612270314,-0.007065921575,-0.003549259901,0.1614208169
15.59653888,0.1798732173,-0.01846433759,-0.0136491555,0.1813328584
15.60657588,0.178800838,-0.02564676493,-0.01490630686,0.181244846
15.61661288,0.1607107222,-0.009435213357,0.0265691632,0.1631651921
15.62664988,0.1551810104,0.01091251239,0.09372852802,0.1816184624
15.63668588,0.1383474612,0.01542393163,0.09912258446,0.1708894509
15.64672288,0.1149966055,0.01482970834,0.06402642667,0.1324519643
15.65675988,0.09093472838,0.01406182274,0.02809996426,0.09621053828
15.66679688,0.1020549631,-0.01576979443,0.001419119239,0.1032759208
15.67683288,0.07645994604,0.01724066153,-0.05225715101,0.09420283217
15.68686988,0.06315577626,0.0007222773135,-0.01178740203,0.06425042106
15.69690688,0.05986028552,-0.01604198232,0.001372341514,0.06198775928
15.70694388,0.05023810744,-0.02300528526,0.02477055967,0.06055320979
15.71697988,0.05047141135,-0.01771136239,0.05220569551,0.07474282818
15.72701688,0.07041977227,-0.0009506110847,0.06903865993,0.09862142035
15.73705388,0.07905961812,-0.01200784206,0.05294361413,0.09590431567
15.74709088,0.09169252753,-0.04295086876,0.008150433898,0.1015811316
15.75712688,0.06686700404,-0.05817497179,-0.04329863191,0.09864225817
15.76716388,0.0676060921,-0.08429272994,-0.05375111461,0.1206856675
15.77720088,0.06202375531,-0.1036953995,-0.04795301557,0.1299968222
15.78723788,0.04392369926,-0.08224620447,-0.003365072608,0.0933008747
15.79727388,0.02559443235,-0.04721977472,0.0051625067,0.05395770165
15.80731088,0.02468343616,-0.03397320002,0.02354732215,0.04814485145
15.81734788,0.04244727731,-0.02289828122,0.01429410338,0.05030332022
15.82738488,0.07470402718,-0.02301361755,-0.02128035665,0.08101340536
15.83742088,0.1119963992,-0.02976071969,-0.03334900975,0.1205862775
15.84745788,0.1197585779,-0.02102761075,-0.03188311279,0.125701274
15.85749488,0.1019590688,-0.003132353425,-0.02023195088,0.1039942074
15.86753188,0.08281411529,-0.02356515616,0.0001011568308,0.08610171025
15.87756788,0.06497952282,-0.02872927085,0.006661148071,0.07135881364
15.88760488,0.05023167551,-0.005165576488,0.0149507457,0.0526633573
15.89764188,0.0294594419,-0.003365218788,0.02452848494,0.03848155387
15.90767788,0.05223960936,-0.01275599331,0.07261715591,0.09036007682
15.91771488,0.04949200273,0.001305098534,0.009687082171,0.05044800469
15.92775188,0.0666898334,0.02235770613,0.05050064743,0.08658935439
15.93778888,0.08837891042,0.00451258868,0.0002537691593,0.0884944047
15.94782488,0.1274862581,-0.02578972936,-0.03888339937,0.135756307
15.95786188,0.1285194612,-0.02238664985,-0.03932310998,0.1362524164
15.96789888,0.1384386778,-0.02769884527,0.002550555468,0.14120552
15.97793588,0.1289907467,-0.03322753385,0.03333088338,0.1373085195
15.98797188,0.09487867534,-0.03225031793,0.04353719831,0.109259021
15.99800888,0.08311115384,-0.01621681407,0.0500580132,0.09836795025
16.00804588,0.04756592989,-0.03260041997,0.05588534832,0.08030241108
16.01808288,0.02817305446,-0.02093054697,0.06490935624,0.07379046904
16.02811888,0.02250359416,-0.0258281748,0.05716647327,0.06664466993
16.03815588,0.040942204,-0.01877248585,0.02612360537,0.0520683498
16.04819288,0.07168101668,-0.02819176555,-0.002133648992,0.07705515074
16.05822988,0.0795256412,-0.03903571934,-0.03468802214,0.09513870859
16.06826588,0.0840753597,-0.05535851419,-0.04133104384,0.1088185939
16.07830288,0.09159780264,-0.04538301811,-0.01250719428,0.1029864345
16.08833988,0.070214535,-0.0317369324,0.01651429117,0.0788037792
16.09837688,0.0408065486,-0.03403269544,0.03265436053,0.0623675078
16.10841288,0.007475665212,-0.01303680584,0.05257056177,0.05467639199
16.11844988,0.01248789847,-0.00934282735,0.04010897577,0.04303447418
16.12848688,0.06453513443,-0.02088917792,-0.005716822743,0.06807219251
16.13852388,0.135945425,-0.006607646048,-0.02561021984,0.1384944148
16.14855988,0.2199874556,-0.08896465525,0.000909242034,0.2372973182
16.15859688,0.1528228283,-0.02702758491,-0.1433702195,0.2112825762
16.16863388,0.1913881391,0.009737075865,-0.0630347389,0.2017364834
16.17866988,0.223928479,-0.009033655822,-0.09356071293,0.2428562901
16.18870688,0.1935264659,-0.07512064129,-0.02515296757,0.2091130688
16.19874388,-0.1102363873,-0.3037953052,0.102699911,0.3391031115
16.20878113,-0.2913579851,-0.2427765401,0.1520691222,0.4086012015
16.21881713,-0.267959767,0.006577386707,0.08014486134,0.2797657905
16.22885413,-0.2730012363,-0.01942035735,0.03970610261,0.2765563232
16.23889113,-0.1488876522,-0.04688911468,0.1520977736,0.217944614
16.24892813,0.03356126368,-0.06793455943,0.08654756248,0.1150301845
16.25896413,0.233674618,-0.1131566329,-0.1070859075,0.2808480768
16.26900113,0.3906887305,-0.1613297962,-0.2538632995,0.4930634463
16.27903813,0.4388651097,-0.2042761333,-0.2545485932,0.5469244092
16.28907513,0.3555914032,-0.1760185866,-0.2761593175,0.4834167535
16.29911113,0.2838051367,-0.09174486011,-0.09225152135,0.3122063711
16.30914813,0.1596441901,-0.06971839875,0.04115445793,0.1789989161
16.31918513,0.05140228808,-0.08416365266,0.07268907666,0.1225129279
16.32922213,-0.05611280501,-0.05249367088,0.08451097727,0.1142205658
16.33925813,-0.1069596076,0.04658491328,0.0517770946,0.1276376877
16.34929513,-0.09850862682,0.1514037091,0.04666428924,0.1865598793
16.35933213,-0.1071706921,0.2254259509,0.06156241,0.2570843187
16.36936913,-0.1192305744,0.2561600858,0.09981431007,0.2996611685
16.37940513,-0.1422025305,0.2728350292,0.09996224463,0.3235011023
16.38944213,-0.1424510372,0.2667759982,0.085488047,0.3142768483
16.39947913,-0.1194159311,0.2349143739,0.04179648221,0.2668180534
16.40951613,-0.0743169415,0.1999038778,0.04319513619,0.2176014429
16.41955213,-0.02525529385,0.1545134045,0.04583690822,0.1631356619
16.42958913,0.0656566304,0.119546324,0.06803527772,0.1524169141
16.43962613,0.1505669725,0.1157571821,0.07460637867,0.2040496267
16.44966313,0.1941994804,0.1364864387,0.04633976877,0.2418457366
16.45969913,0.2195196784,0.1313365035,-0.03390040219,0.2580453518
16.46973613,0.2417706728,0.03475365713,-0.06354520082,0.2523863456
16.47977313,0.1947853714,0.1264603642,-0.1493975294,0.276139795
16.48981013,0.2618769085,0.237507614,0.07472390771,0.3613489233
16.49984613,0.2244237381,0.3000615656,0.2464127773,0.4484665141
16.50988313,0.1965079612,0.33751956,0.3540576786,0.5271543151
16.51992013,0.150864011,0.4288149154,0.3072998339,0.5487033528
16.52995713,0.1815443516,0.4301222067,0.3157677716,0.5636246533
16.53999313,0.1981650621,0.3504680729,0.1819513178,0.4418184514
16.55003013,0.2171363533,0.2246604042,0.01190493107,0.3126695068
16.56006713,0.2626107341,0.05706195429,-0.1190510648,0.2939279169
16.57010313,0.3445401657,-0.1230477829,-0.1640132296,0.4009351844
16.58014013,0.3938134825,-0.2866979004,-0.1055422425,0.4984214182
16.59017713,0.3756163627,-0.3736052129,0.01144358575,0.529905145
16.60021413,0.3225721765,-0.3735167737,0.09860686004,0.5032801428
16.61025013,0.2240424997,-0.336453905,0.1822366619,0.4434032846
16.62028713,0.1006165481,-0.3053259601,0.1592880946,0.3587761541
16.63032413,0.006504442692,-0.2796392879,0.04316356122,0.283025674
16.64036113,-0.02885776341,-0.2905724117,-0.1048166031,0.3102444476
16.65039713,-0.01177687705,-0.3450519432,-0.1937784809,0.3959162007
16.66043413,0.05888730884,-0.3996665454,-0.2113821083,0.4559423849
16.67047113,0.106391843,-0.4318674543,-0.2291892189,0.5003562935
16.68050813,0.1265881258,-0.4319640796,-0.1836376548,0.4861484423
16.69054413,0.05936444163,-0.3716408408,-0.1416569853,0.4021290252
16.70058113,-0.0470455277,-0.2480801108,-0.1232581365,0.2809796991
16.71061813,-0.1423118734,-0.1043286529,-0.1025420362,0.2040882317
16.72065513,-0.2064453042,-0.003920850456,-0.09256785572,0.2262826652
16.73069113,-0.2161809182,0.07095610812,-0.06243949234,0.2359399264
16.74072813,-0.1900994128,0.08732845813,-0.03544465184,0.2121800407
16.75076513,-0.1517627281,0.06649395168,-0.0217481339,0.1671117966
16.76080213,-0.08654171526,0.03440530926,-0.03317593217,0.09886271421
16.77083813,-0.02752635241,0.02125053585,-0.06063854992,0.06990221089
16.78087513,0.04143512428,0.0001045189798,-0.0709846133,0.08219303969
16.79091213,0.1059410226,0.01412292615,-0.02324969888,0.1093778123
16.80094913,0.1484391707,0.03820877686,-0.01432509363,0.1539457903
16.81098513,0.1550231355,0.07558403313,-0.0005472993851,0.1724686005
16.82102213,0.1489309216,0.1065831931,0.03531308949,0.1865138352
16.83105913,0.1528503102,0.1151962879,0.08434491634,0.2091589515
16.84109613,0.1528134727,0.1376190443,0.1495635903,0.2542837517
16.85113213,0.2036830795,0.1036797582,0.2674042815,0.3517688714
16.86116913,0.1441794741,0.1611154957,0.1553880018,0.2662543048
16.87120613,0.1514557493,0.197406532,0.1175354666,0.275177704
16.88124313,0.1547038776,0.1198638278,0.09171767056,0.2161313444
16.89127913,0.1886428714,0.06706230104,-0.003396647573,0.200237415
16.90131613,0.1945842272,0.004097728729,-0.0744958663,0.2083973295
16.91135313,0.2206791812,-0.03711403191,-0.1055498439,0.2474217491
16.92139013,0.2114850193,-0.04303272977,-0.09401445687,0.2354069823
16.93142613,0.1770495969,-0.02783011526,-0.01693996847,0.1800223253
16.94146313,0.1116075593,0.03642040595,-0.02841629863,0.1207898145
16.95150013,0.04724959552,0.05904299095,0.05829732478,0.09548391034
16.96153713,-0.01489051938,0.03686494052,0.1157187366,0.1223583974
16.97157313,-0.06628403664,-0.003810630441,0.1398817706,0.1548386391
16.98161013,-0.1002154291,-0.07680288523,0.1158514684,0.1713574572
16.99164713,-0.09837472558,-0.1532208775,0.04657248795,0.1879447274
17.00168413,-0.05869493544,-0.2353556925,-0.02094063342,0.2434664403
17.01172013,0.007560449839,-0.2969730663,-0.07948178709,0.3075183198
17.02175713,0.06501636028,-0.2916756351,-0.06065609157,0.3049278024
17.03179413,0.08594120622,-0.2445157944,-0.05210044563,0.2643639935
17.04183013,0.05842654824,-0.2142336492,-0.03363610804,0.2245909744
17.05186713,0.01063491583,-0.1736272216,-0.01179441869,0.1743520055
17.06190413,-0.04206545413,-0.1353887701,-0.02980091929,0.1448713784
17.07194113,-0.07958002031,-0.1304591288,-0.04685607791,0.1598375924
17.08197713,-0.08432912886,-0.1315664452,-0.07949055791,0.1753279221
17.09201413,-0.04521476448,-0.155055149,-0.1467528337,0.2182266445
17.10205113,0.012805987,-0.1537354325,-0.1664626282,0.2269545838
17.11208813,0.03129897594,-0.1907953776,-0.1561317676,0.2485148504
17.12212413,0.04808106959,-0.2000092739,-0.1522410303,0.2559156701
17.13216113,0.04039198101,-0.1446171382,-0.1217530632,0.1933117616
17.14219813,0.01901923835,-0.1071237682,-0.04830794156,0.1190415489
17.15223513,-0.01026595652,-0.05068381146,0.0124914068,0.05320031815
17.16227113,0.004287178516,-0.01314673349,0.04867865503,0.05060462387
17.17230813,0.01780418694,0.01398844019,0.0762365824,0.0795278695
17.18234513,0.04188477516,0.02448199958,0.08720478952,0.09979167304
17.19238213,0.06822648168,0.04605369374,0.07130913377,0.1089072452
17.20241821,0.08270711124,0.05203100994,0.04736653984,0.1085876666
17.21245521,0.09789233029,0.02682717159,0.02093127787,0.1036374636
17.22249221,0.1216267633,-0.0002977694571,0.03038271725,0.1253645394
17.23252921,0.09903195262,-0.01187130958,0.04930255294,0.1112609426
17.24256521,0.06636823654,-0.004457624853,0.08523076952,0.1081152039
17.25260221,0.03456289172,0.02011953816,0.08426422477,0.09327298042
17.26263921,-0.01738201797,0.03942616716,0.08681068718,0.0969156985
17.27267621,-0.04885465622,0.05568551973,0.1000394279,0.1244810896
17.28271221,-0.07494142413,0.07855514959,0.08155287087,0.1357865948
17.29274921,-0.0697888577,0.0991968441,0.02890337169,0.1246832123
17.30278621,-0.04987499535,0.09404544711,-0.03156502426,0.1110333825
17.31282321,-0.008303046227,0.07738775298,-0.06274881005,0.0999760874
17.32285921,0.01528871477,0.01265103579,-0.07344687581,0.07608046446
17.33289621,0.02340289593,-0.0418688415,-0.0458363235,0.06634503733
17.34293321,-0.003093761802,-0.07466996714,-0.03813846409,0.08390302616
17.35297021,-0.008780763745,-0.04685520083,-0.03630711615,0.05992260291
17.36300621,0.01196106434,-0.0181026873,-0.05479601204,0.0589353653
17.37304321,0.05045679331,-0.02859551579,-0.07814043581,0.09731145474
17.38308021,0.08962261319,-0.04498526126,-0.060518682,0.1171255625
17.39311721,0.1229950118,-0.02368326992,-0.02909983814,0.1285903215
17.40315321,0.1359588736,0.02809397087,0.01741300821,0.1399189028
17.41319021,0.1221916044,0.1056567018,0.0756752497,0.1783840526
17.42322721,0.1212513721,0.1285251622,0.07652835846,0.1925544136
17.43326421,0.1451892883,0.09814302966,0.06428428888,0.1866666909
17.44330021,0.1759988523,0.04127301022,0.0382174015,0.1847691185
17.45333721,0.1855742526,-0.01790592849,0.05043808222,0.1931383588
17.46337421,0.1815437669,-0.04535597473,0.03484238863,0.1903399479
17.47341121,0.1569883847,-0.07037270218,0.01540098131,0.1727277059
17.48344721,0.1398484415,-0.08618898198,0.009931495786,0.1645744871
17.49348421,0.1395379543,-0.1025363351,0.01252649009,0.1736129421
17.50352121,0.1278096092,-0.05201697662,0.03894187152,0.1433789783
17.51355821,0.1187984651,-0.008380814195,0.05141398251,0.1297178128
17.52359421,0.09970555186,0.001219729185,0.02680305183,0.1032525467
17.53363121,0.07921573877,0.03579183027,0.01209613502,0.08776391551
17.54366821,0.05491880357,0.0362522985,0.01409295917,0.0672972186
17.55370521,0.04922069192,0.02960240632,0.02094589591,0.06113680993
17.56374121,0.01383919001,0.02118066162,0.02477874577,0.03541369578
17.57377821,0.008144001961,-0.002467086464,0.01249842346,0.0151202471
17.58381521,0.007549340129,-0.02147199914,-0.0128439939,0.02613441147
17.59385221,-0.008126460314,-0.06059615761,-0.0380571878,0.07201585393
17.60388821,-0.006745932698,-0.08348230585,-0.07275865853,0.1109442445
17.61392521,0.01671192706,-0.1050620399,-0.05857740641,0.1214439512
17.62396221,0.024028548,-0.1056119706,-0.08613241017,0.1383837112
17.63399921,0.05448143184,-0.102532973,-0.08590787709,0.1444347614
17.64403521,0.06966840506,-0.06910005569,-0.07011513233,0.1206011449
17.65407221,0.099085747,-0.04430961549,-0.01918179095,0.1102237197
17.66410921,0.1008054131,-0.01360062361,0.01604651392,0.102976691
17.67414621,0.11248815,0.02988307267,0.04956743181,0.1265049889
17.68418221,0.1184745294,0.02695361763,0.03330515563,0.1259839077
17.69421921,0.1127541983,0.01806087971,0.01443736017,0.1151005733
17.70425621,0.08094125211,0.01215402246,0.01453793228,0.08312976621
17.71429321,0.06547945976,0.004590502828,0.018887676,0.06830356266
17.72432921,0.007799600959,0.02282928407,0.004138074517,0.02447720668
17.73436621,-0.0209213376,0.01806570366,0.009310521483,0.02916775319
17.74440321,-0.03989496768,-0.008703580499,-0.03118846357,0.05138171872
17.75444021,-0.04744079947,-0.03686157838,-0.03779230893,0.07097650336
17.76447621,-0.04880729377,-0.05168587804,-0.02838764727,0.07654698186
17.77451321,-0.02926589906,-0.05969437078,-0.01342403769,0.06782415159
17.78455021,0.004707593322,-0.06805164993,-0.04745717168,0.08309856579
17.79458721,0.02734567344,-0.1108654015,-0.06954502881,0.1336990431
17.80462321,-0.02482727766,-0.1411395067,-0.06022690594,0.1554478506
17.81466021,-0.2131964993,-0.09493276209,-0.060667786,0.2411338983
17.82469721,0.06506430745,-0.08632814571,-0.1383246571,0.1755551868
17.83473421,0.194284265,-0.2409104012,-0.150366413,0.3440846628
17.84477021,0.1427539229,-0.2511314803,-0.05133387566,0.2933954153
17.85480721,0.06192961514,-0.1612609452,0.03950495839,0.1772033053
17.86484421,0.08258724332,-0.09041549563,0.04535041988,0.1305843604
17.87488121,0.09953364372,-0.02365988106,0.05076494157,0.1142095245
17.88491721,0.1145908087,0.04006088242,0.06172671676,0.1361841228
17.89495421,0.1776050824,0.07583151653,0.07266627252,0.2063355795
17.90499121,0.2486861748,0.07650175363,0.07005607545,0.2694534942
17.91502821,0.3055170178,0.03218424439,0.07124598384,0.3153608473
17.92506421,0.3845316124,-0.003938538283,0.02672762275,0.3854794921
17.93510121,0.4043390554,-0.03618257046,-0.04888330758,0.4088873046
17.94513821,0.2706307751,-0.07794236138,-0.120111165,0.3061743296
17.95517521,0.1678033948,-0.02370592788,-0.1344877142,0.2163490134
17.96521121,0.1514896631,0.06195768178,-0.08233639777,0.1832134132
17.97524821,0.155127216,0.1238722403,0.01775448561,0.1993088227
17.98528521,0.1080284786,0.1600878476,0.157151522,0.2489876945
17.99532221,0.06822004974,0.1846555088,0.2326712358,0.304774566
18.00535821,0.01456190586,0.1812728946,0.2572236943,0.3150173651
18.01539521,-0.01268202603,0.1693208934,0.2184858906,0.2767064928
18.02543221,0.02590725839,0.1652711119,0.1088377333,0.1995780014
18.03546921,0.08750709057,0.1237405318,0.009057337046,0.1518263662
18.04550521,0.15132828,0.0784044376,-0.06798499167,0.1834924065
18.05554221,0.1828365862,0.04028877765,-0.1078700191,0.2160748571
18.06557921,0.1793229944,-0.01508625492,-0.1241942757,0.2186516625
18.07561621,0.136229015,-0.02060836539,-0.06058066249,0.1505093549
18.08565221,0.07902921259,0.02123679489,0.01072964072,0.08253328474
18.09568921,0.02956293762,0.01997613519,0.09841682553,0.1046846923
18.10572621,-0.03494296074,0.03188881382,0.1620497346,0.168813576
18.11576321,-0.03260641336,0.02941909611,0.1589419395,0.1648975486
18.12579921,-0.01043552577,-0.002949627936,0.1310472125,0.1314951421
18.13583621,0.01604008198,-0.04145339683,0.06942808449,0.08243741417
18.14587321,0.03834896386,-0.08083541751,0.005735533834,0.08965435907
18.15591021,0.05834117889,-0.07542411178,-0.0378864491,0.1026054229
18.16594621,0.03823611259,-0.07338781893,-0.07721832991,0.1131832264
18.17598321,0.02798418939,-0.0514535974,-0.1057036257,0.1208463654
18.18602021,0.008611779213,-0.03550166219,-0.1173571265,0.1229114555
18.19605721,-0.0248582679,-0.03619952738,-0.1162946874,0.1243092659
18.20609308,-0.03395010352,-0.03470234782,-0.1262279373,0.1352418376
18.21613008,-0.0243782115,-0.06355046332,-0.1148270363,0.1334848562
18.22616708,-0.02343856394,-0.07577655271,-0.07000461996,0.1057927173
18.23620408,-0.01987877905,-0.07094207481,-0.03421849072,0.08123329946
18.24624008,-0.009135105014,-0.06092491731,-0.008511791825,0.06219120752
18.25627708,-0.007904850841,-0.03406353951,0.02954773486,0.04578078227
18.26631408,-0.01334217668,-0.02441051736,0.07740310192,0.08225039345
18.27635108,-0.02769533694,-0.007242799848,0.1008556992,0.1048396962
18.28638708,-0.02949978769,0.01935603797,0.06959706903,0.07802977442
18.29642408,-0.01424089372,0.004997322857,0.01495249987,0.02124508277
18.30646108,0.01636109412,-0.01723452196,-0.03964061379,0.04621787976
18.31649808,0.03674565732,-0.06363393232,-0.08928464413,0.1156342006
18.32653408,0.04849388301,-0.09811540157,-0.09746022105,0.1465495937
18.33657108,0.03029851735,-0.1070574023,-0.09585399091,0.14685801
18.34660808,0.01014667332,-0.09699054345,-0.08387538493,0.1286281489
18.35664508,-0.0070605129,-0.08530824512,-0.06754001856,0.1090366986
18.36668108,-0.01663006604,-0.05849905372,-0.03546336293,0.07040133871
18.37671808,-0.01827605724,-0.03231127515,-0.009064938426,0.03821264031
18.38675508,-0.008376721144,-0.004414940178,0.003620595932,0.01013754747
18.39679208,0.009759002924,0.01585370198,-0.004821614027,0.01923085974
18.40682808,0.06393170178,-0.007500515878,0.009177204967,0.06502108367
18.41686508,0.1027092665,0.0002648788691,0.03133464396,0.107383069
18.42690208,0.09512308896,0.03442928284,0.06942633033,0.1226938992
18.43693908,0.0964854902,0.04827943638,0.07199793577,0.1297075809
18.44697508,0.09759470701,0.04826131001,0.06608757019,0.1273634477
18.45701208,0.08384790301,0.01930107415,0.05077078879,0.09990332976
18.46704908,0.07642895579,-0.02539401904,0.04202510834,0.09084245273
18.47708608,0.08445835233,-0.06049061537,0.02474775553,0.106793161
18.48712208,0.07997061431,-0.07485181555,0.02005185664,0.1113560524
18.49715908,0.07934613168,-0.07623234317,0.009252634048,0.1104209672
18.50719608,0.07381641984,-0.06841520056,-0.005092340112,0.1007741804
18.51723308,0.09577096045,-0.05904737636,-0.03690820992,0.11840982
18.52726908,0.1063842416,-0.03405228361,-0.04213679016,0.1193845633
18.53730608,0.1128921926,-0.02185440704,-0.05020185471,0.1254690738
18.54734308,0.114224773,-0.0006709679961,-0.01695283234,0.1154779091
18.55738008,0.08043079019,0.007929409146,0.007906020284,0.08120648186
18.56741608,0.06453922749,0.001272354126,0.01018351078,0.06535009305
18.57745308,0.04141641319,-0.000239443481,0.01439584494,0.04384765633
18.58749008,0.02591369033,0.001363716871,0.0283098793,0.0384034938
18.59752708,0.01605528474,-0.001044751257,0.02227087498,0.02747463458
18.60756308,0.006397438645,-0.0001229377091,0.01115765691,0.01286217876
