"Time (s)","Linear Acceleration x (m/s^2)","Linear Acceleration y (m/s^2)","Linear Acceleration z (m/s^2)","Absolute acceleration (m/s^2)"
-4.771249369E-4,4.637974910E-3,-8.862347022E-2,-6.605564439E-1,6.664911447E-1
9.559875005E-3,8.150499679E-2,-1.638082847E-2,-7.554737109E-1,7.600341597E-1
1.959687506E-2,1.033355033E-1,1.643450591E-1,-4.537778485E-1,4.935603919E-1
2.963287511E-2,1.815679232E-1,3.792274569E-1,-9.833554924E-2,4.317988595E-1
3.966987506E-2,4.797582702E-1,5.328405364E-1,2.594719487E-1,7.625042473E-1
4.970687511E-2,6.842530894E-1,5.788837051E-1,7.230853987E-1,1.151590695E0
5.974287505E-2,6.811495335E-1,5.193926713E-1,9.512928700E-1,1.280113885E0
6.977987511E-2,5.450038778E-1,2.740781473E-1,7.809681559E-1,9.909890606E-1
7.981587504E-2,2.644251799E-1,1.311281964E-2,3.412388277E-1,4.318987837E-1
8.985287510E-2,-1.305571062E-1,-1.561829308E-1,-9.242226005E-2,2.235623850E-1
9.988987504E-2,-4.367865707E-1,-2.690721998E-1,-3.859431303E-1,6.419769909E-1
1.099258751E-1,-4.862166660E-1,-2.827349500E-1,-5.524765098E-1,7.884009083E-1
1.199628750E-1,-3.782826199E-1,-2.611483455E-1,-6.182635331E-1,7.704193632E-1
1.299998751E-1,-2.729433306E-1,-1.311882766E-1,-5.412966335E-1,6.202503293E-1
1.400358750E-1,-2.170558627E-1,4.564482719E-2,-5.765448189E-1,6.177383151E-1
1.500728751E-1,-5.158431921E-2,1.124230997E-1,-6.204731959E-1,6.326822917E-1
1.601098750E-1,3.299750073E-2,9.526108325E-2,-5.194110900E-1,5.291043276E-1
1.701458751E-1,-4.019993652E-2,2.198670030E-2,-2.947476161E-1,2.982877923E-1
1.801828750E-1,-1.929768824E-1,-1.208791968E-1,8.197737873E-2,2.420168341E-1
1.902200833E-1,-3.017635805E-1,-2.634701286E-1,3.093978149E-1,5.061667463E-1
2.002560834E-1,-3.681125578E-1,-3.322262219E-1,3.111660129E-1,5.854104588E-1
2.102930833E-1,-3.167411503E-1,-2.923129816E-1,1.449021900E-1,4.547180227E-1
2.203300834E-1,-2.766003803E-1,-1.434402399E-1,-4.923297107E-2,3.154469182E-1
2.303660834E-1,-1.763745724E-1,1.321580373E-1,-4.017271042E-2,2.240258540E-1
2.404030834E-1,2.937055509E-2,4.274278097E-1,9.804318845E-2,4.395106697E-1
2.504400834E-1,3.676804851E-1,5.486309423E-1,9.331629932E-2,6.670028348E-1
2.604760834E-1,6.463592581E-1,5.541963221E-1,3.432432532E-2,8.521103293E-1
2.705130834E-1,5.870506940E-1,5.824180546E-1,-8.346023262E-2,8.311467488E-1
2.805490834E-1,4.449242869E-1,5.634917870E-1,-3.168419051E-1,7.847734756E-1
2.905860834E-1,1.672916172E-1,5.416967292E-1,-4.106645733E-1,7.000480151E-1
3.006230834E-1,-7.405476697E-2,6.234529370E-1,-4.071825564E-1,7.483149787E-1
3.106590834E-1,-1.936334699E-2,6.758473514E-1,-3.549868011E-1,7.636492720E-1
3.206960834E-1,2.010079052E-1,6.608802335E-1,-2.722112775E-2,6.913087955E-1
3.307330834E-1,5.722563978E-1,4.532907389E-1,5.038270909E-1,8.870127487E-1
3.407690834E-1,7.767546523E-1,1.561336680E-1,7.316790515E-1,1.078461750E0
3.508060834E-1,8.218979345E-1,-7.642474854E-2,6.243569165E-1,1.034977544E0
3.608430834E-1,8.794529553E-1,-1.330313555E-1,2.038374460E-1,9.125155048E-1
3.708790834E-1,7.563092780E-1,-8.948790796E-2,-1.936030644E-1,7.858078367E-1
3.809160833E-1,2.151614562E-1,-3.241743866E-2,-1.938422155E-1,2.914106159E-1
3.909530834E-1,-5.825158493E-1,-8.034257032E-2,-1.254695535E-1,6.012672053E-1
4.009890833E-1,-1.356317219E0,-2.315252546E-1,-1.580642724E-1,1.384985436E0
4.110260834E-1,-1.706219135E0,-3.694509854E-1,-3.462767887E-1,1.779771160E0
4.210630833E-1,-1.536924408E0,-4.774744208E-1,-8.258700943E-1,1.808916768E0
4.310990834E-1,-9.658800651E-1,-6.899168486E-1,-1.516463100E0,1.925764755E0
4.411360834E-1,-6.193214406E-1,-9.492602317E-1,-2.001068054E0,2.299766813E0
4.511730834E-1,-2.560055731E-1,-9.848995958E-1,-2.022065406E0,2.263694894E0
4.612090834E-1,1.061033413E0,-9.678950156E-1,-1.189254082E0,1.864654911E0
4.712460834E-1,4.157531127E-2,-9.866084446E-1,8.743055052E-1,1.318914268E0
4.812830834E-1,-1.471455912E0,-7.714129284E-1,2.572401835E0,3.062272295E0
4.913190834E-1,-9.360821425E-1,-9.556488995E-1,2.423148147E0,2.767880333E0
5.013560834E-1,-3.011917593E-1,-1.135282820E0,1.493064882E0,1.899691106E0
5.113920834E-1,7.909908682E-2,-1.228772781E0,2.938220018E-1,1.265887271E0
5.214290834E-1,3.197506025E-2,-9.578733265E-1,-8.691734040E-1,1.293833884E0
5.314660834E-1,4.888474745E-1,-3.034085119E-1,-1.667970305E0,1.764413080E0
5.415020834E-1,1.895004825E0,-6.178203142E-1,-2.522040936E0,3.214566177E0
5.515390834E-1,1.158904840E0,-3.728769422E-3,-4.146015036E-1,1.230840663E0
5.615760834E-1,-8.745351546E-2,1.080146500E0,1.227184970E0,1.637176694E0
5.716120834E-1,6.374195963E-3,1.831686204E0,1.552824596E0,2.401328633E0
5.816490834E-1,1.110425136E0,2.331809668E0,1.730575858E0,3.108902236E0
5.916860834E-1,2.077149978E0,3.225722642E0,2.374838451E0,4.512172011E0
6.017220834E-1,2.744049774E0,3.587368544E0,2.246328346E0,5.044305033E0
6.117590833E-1,2.822291366E0,2.623996789E0,7.841484565E-1,3.932629719E0
6.217960834E-1,2.335789576E0,1.546983812E0,-5.133241385E-1,2.848257981E0
6.318320833E-1,1.345491099E0,5.690521967E-1,-9.878180873E-1,1.763505394E0
6.418690834E-1,-5.063560847E-1,-6.519350168E-1,-1.643290962E0,1.838972794E0
6.519060833E-1,-2.251979679E0,-6.902538675E-1,-4.827216829E0,5.371208914E0
6.619420834E-1,3.515600404E-1,8.118569496E-1,-2.944432685E0,3.074473939E0
6.719790834E-1,2.745696642E0,1.213653051E0,3.460957004E0,4.581487440E0
6.820160834E-1,-1.005368980E-1,5.902737889E-1,-3.398126918E0,3.450477846E0
6.920520834E-1,-2.181253952E0,-9.742104471E-1,-1.637276516E0,2.896140395E0
7.020890834E-1,-1.459041250E0,-1.749305660E0,-8.068502712E-1,2.416584164E0
7.121260834E-1,-1.039794864E0,-1.386122231E0,-1.594921625E0,2.355054817E0
7.221620834E-1,-1.010874828E0,-1.374902886E0,-1.517466483E0,2.283622208E0
7.321990834E-1,-6.077197608E-1,-1.247682092E0,-1.558739054E0,2.087031708E0
7.422360834E-1,-2.416647651E-1,-1.238741114E0,-1.421159917E0,1.900678015E0
7.522720834E-1,-8.611340672E-2,-1.211315042E0,-1.178602794E0,1.692277813E0
7.623090834E-1,-2.059287027E-1,-1.241798916E0,-9.215831673E-1,1.560059843E0
7.723450834E-1,-3.836898326E-1,-1.539574805E0,-1.304292787E0,2.053944532E0
7.823820834E-1,-6.140780962E-1,-1.895446874E0,-1.924728561E0,2.770269084E0
7.924190834E-1,-5.496639991E-1,-2.183780387E0,-2.087002829E0,3.070278179E0
8.024550834E-1,-3.606784809E-1,-2.450502591E0,-1.568658271E0,2.931849363E0
8.124920834E-1,-6.043524224E-1,-2.644774577E0,-6.966974992E-1,2.800975155E0
8.225290834E-1,-9.041061321E-1,-2.887340764E0,-3.185568935E-1,3.042305553E0
8.325650834E-1,-9.404334211E-1,-2.979936101E0,-5.767810464E-1,3.177595091E0
8.426020833E-1,-8.418841562E-1,-2.534373591E0,-1.252849569E0,2.949822108E0
8.526390834E-1,-6.184953752E-1,-1.994844424E0,-2.400942176E0,3.182210574E0
8.626750833E-1,-1.470989889E-1,-1.491681139E0,-3.485518234E0,3.794151827E0
8.727120834E-1,1.720958358E-1,-9.452524039E-1,-3.899766566E0,4.016378761E0
8.827490833E-1,4.201040259E-1,-5.041776314E-1,-3.936171330E0,3.990504632E0
8.927850834E-1,1.034995762E0,-6.063112396E-1,-2.909389152E0,3.146962787E0
9.028220834E-1,1.112010024E0,-1.068968670E0,-1.400334474E0,2.083313934E0
9.128590834E-1,1.019749147E0,-1.665055468E0,-2.905113083E-1,1.974004776E0
9.228950834E-1,7.458573800E-1,-2.151210081E0,6.415646875E-1,2.365504870E0
9.329320834E-1,4.455470154E-1,-2.522791426E0,1.254516610E0,2.852507782E0
9.429690834E-1,3.367534286E-1,-2.658802632E0,1.000080868E0,2.860558696E0
9.530050834E-1,1.503729034E0,-1.419375639E0,8.540220988E-1,2.237226399E0
9.630420834E-1,2.216069589E0,-1.537004954E-1,6.403057820E-1,2.311834718E0
9.730790834E-1,2.137397057E0,2.562369767E-1,-3.651118398E-2,2.153011062E0
9.831150834E-1,2.171671681E0,8.242869607E-1,-6.351093614E-1,2.408105227E0
9.931520834E-1,2.088575145E0,1.143810691E0,-2.916047376E-1,2.399058640E0
1.003189083E0,2.150438102E0,8.281019765E-1,4.090934265E-1,2.340404740E0
1.013225083E0,1.833228407E0,3.658304626E-1,7.442505652E-1,2.012080322E0
1.023262083E0,1.206650718E0,2.656442696E-1,7.651420820E-1,1.453277413E0
1.033298083E0,7.566349679E-1,1.924207574E-1,6.480545121E-1,1.014641253E0
1.043335083E0,4.410127920E-1,1.501749167E-1,5.603228885E-1,7.287019471E-1
1.053372083E0,3.227902776E-1,1.395765460E-1,5.542634189E-1,6.564168744E-1
1.063408083E0,1.010556740E-1,4.364999110E-1,7.518794274E-1,8.752525892E-1
1.073445083E0,2.003291166E-1,9.291462484E-1,8.147428429E-1,1.251898720E0
1.083482083E0,3.469965810E-1,1.491567995E0,5.898162442E-1,1.641056036E0
1.093518083E0,4.467576814E-1,1.661253608E0,4.407490826E-1,1.775842260E0
1.103555083E0,1.015652003E0,2.106231397E0,9.430120432E-1,2.521315412E0
1.113592083E0,1.573023802E0,2.832968382E0,1.435499629E0,3.544118074E0
1.123628083E0,1.767188199E0,2.788095095E0,1.523751655E0,3.635690787E0
1.133665083E0,2.119229758E0,2.652813329E0,2.035887054E0,3.958963175E0
1.143702083E0,2.321303099E0,2.814603447E0,2.449358291E0,4.394291374E0
1.153738083E0,2.230544372E0,2.848298028E0,2.487127211E0,4.390208607E0
1.163775083E0,1.940516043E0,2.520850443E0,2.389938886E0,3.978956816E0
1.173812083E0,1.528124202E0,2.140167760E0,2.204110279E0,3.431265618E0
1.183848083E0,1.118306306E0,2.048003947E0,1.981634248E0,3.061340140E0
1.193885208E0,8.387211049E-1,2.086288007E0,1.592741783E0,2.755517578E0
1.203922208E0,7.380162638E-1,2.150524641E0,1.681104906E0,2.827638226E0
1.213958208E0,9.324145496E-1,2.178780141E0,1.824917175E0,2.991120608E0
1.223995208E0,1.105150363E0,2.119200814E0,1.802400132E0,2.993495557E0
1.234032208E0,1.022566043E0,2.069038136E0,1.735361220E0,2.887566221E0
1.244068208E0,8.888124472E-1,1.796451175E0,1.689930693E0,2.621657898E0
1.254105208E0,1.181501843E0,1.555083375E0,2.039559106E0,2.823832901E0
1.264142208E0,1.730049024E0,1.840500881E0,2.094137017E0,3.281146593E0
1.274178208E0,2.004268528E0,2.144418978E0,1.186952033E0,3.166145956E0
1.284215208E0,1.875339469E0,1.871937267E0,2.466642076E-1,2.661182160E0
1.294251208E0,1.465396735E0,1.407402296E0,2.308574295E-1,2.044862823E0
1.304288208E0,9.369543278E-1,8.966909856E-1,6.851872551E-1,1.466771867E0
1.314325208E0,1.826085448E-1,4.006146714E-1,8.993310034E-1,1.001316258E0
1.324361208E0,-4.555975020E-2,7.461778075E-2,5.984818178E-1,6.048338535E-1
1.334398208E0,1.534584206E-1,-2.569900981E-1,5.594072145E-1,6.344523852E-1
1.344435208E0,2.833315122E-1,-9.109096599E-1,1.117299415E0,1.469146398E0
1.354471208E0,-3.828464448E-1,-1.606367842E0,8.093821156E-1,1.839045527E0
1.364508208E0,-1.354373020E0,-1.756117081E0,2.962298852E-1,2.237414942E0
1.374545208E0,-1.113099360E0,-1.273530586E0,-2.178029358E-2,1.691550981E0
1.384581208E0,-7.163991076E-1,-5.812907115E-1,-3.458125198E-1,9.852476193E-1
1.394618208E0,-4.418869507E-1,1.270038629E-1,-6.521306062E-1,7.979150242E-1
1.404655208E0,-9.341628671E-2,6.593715057E-1,-9.039625829E-1,1.122784813E0
1.414691208E0,9.577856183E-2,8.037766823E-1,-1.107794766E0,1.372020311E0
1.424728208E0,-4.645086586E-2,5.436051142E-1,-1.410642530E0,1.512473653E0
1.434765208E0,-3.491378313E-1,9.251143008E-2,-1.612762064E0,1.652712034E0
1.444801208E0,-9.650385046E-1,-5.948085970E-1,-1.351759315E0,1.764185315E0
1.454838208E0,-1.793707076E0,-1.525633581E0,-9.744607079E-1,2.548434141E0
1.464875208E0,-2.274451699E0,-2.317855580E0,-6.045021111E-1,3.303181470E0
1.474911208E0,-2.273126135E0,-2.811698258E0,1.946485466E-1,3.620861441E0
1.484948208E0,-2.516719385E0,-2.949137354E0,9.028884494E-1,3.980765649E0
1.494985208E0,-2.670416957E0,-2.693904052E0,1.180877361E0,3.972746796E0
1.505021208E0,-2.134527243E0,-2.079788242E0,8.851807415E-1,3.108901836E0
1.515058208E0,-1.531489860E0,-1.297480489E0,5.994097710E-2,2.008110985E0
1.525095208E0,-9.396908247E-1,-5.404748073E-1,-4.364151263E-1,1.168584625E0
1.535131208E0,-6.021708262E-1,9.093151242E-2,-6.820701045E-1,9.143838752E-1
1.545168208E0,-5.141684765E-1,1.907879224E-1,-8.371289080E-1,1.000776729E0
1.555204208E0,-5.266598833E-1,-1.018257523E-1,-5.590031719E-1,7.747410294E-1
1.565241208E0,-5.662648290E-1,-3.496173030E-1,-3.613509107E-1,7.572731316E-1
1.575278208E0,-6.438100183E-1,-4.950869653E-1,-5.756308991E-1,9.954664107E-1
1.585314208E0,-3.813612521E-1,-7.140920886E-1,-7.844261992E-1,1.127248144E0
1.595351208E0,1.165747690E-1,-6.969001052E-1,-7.041240478E-1,9.975219837E-1
1.605388208E0,6.450180531E-1,-3.404745966E-2,-7.729323274E-1,1.007289383E0
1.615424208E0,1.440540513E0,1.105916056E0,-7.815499538E-1,1.977126102E0
1.625461208E0,1.815912462E0,1.636351486E0,-6.384106994E-1,2.526410988E0
1.635498208E0,1.112494758E0,1.418189532E0,-5.142515069E-1,1.874396102E0
1.645534208E0,5.776645607E-1,9.755371803E-1,-6.315951848E-1,1.297798756E0
1.655571208E0,1.918465608E-1,4.637052512E-1,-4.519693047E-1,6.753546589E-1
1.665608208E0,-2.610009956E-1,3.820623332E-1,-9.364549756E-2,4.720832823E-1
1.675644208E0,-1.212572193E-1,2.961912936E-1,3.110063839E-1,4.462707322E-1
1.685681208E0,2.065762818E-2,6.041401684E-2,1.490085141E0,1.491452419E0
1.695718208E0,4.127572918E-1,-4.267678052E-1,1.769045275E0,1.866017290E0
1.705754208E0,6.523586476E-1,-3.193904141E-1,1.715578920E0,1.863006460E0
1.715791208E0,8.563183004E-1,3.076851654E-1,1.934758875E0,2.138046561E0
1.725828208E0,6.087390035E-1,6.499112955E-1,1.497525723E0,1.742277578E0
1.735864208E0,6.917934394E-1,5.779636458E-1,6.633350408E-1,1.119211113E0
1.745901208E0,-2.460859179E-2,5.476908562E-1,-3.778646171E-1,6.658472239E-1
1.755938208E0,-2.546520889E-1,8.421554670E-1,-1.417913543E0,1.668697795E0
1.765974208E0,-2.263971734E-1,1.390704694E0,-1.931891400E0,2.391133541E0
1.776011208E0,-3.374913472E-1,1.208026568E0,-1.465159045E0,1.928709316E0
1.786048208E0,-5.429554886E-1,-3.487738422E-1,6.879050410E-1,9.432164126E-1
1.796084208E0,-4.990879226E-1,-1.888660888E0,3.311499833E0,3.844757450E0
1.806121208E0,-3.794427806E-1,-1.992182626E0,3.806413429E0,4.312951614E0
1.816157208E0,1.943661261E-1,-7.302067226E-1,1.931560448E0,2.074103617E0
1.826194208E0,7.019751960E-1,7.044833592E-1,-1.726975143E-1,1.009401016E0
1.836231208E0,3.786352801E-1,1.347560137E0,-1.181838058E0,1.831945467E0
1.846267208E0,2.706342834E-1,9.367312565E-1,-1.250831110E0,1.585965582E0
1.856304208E0,4.825566745E-1,4.718682566E-1,-1.219112889E0,1.393469351E0
1.866341208E0,4.779759657E-1,-4.444936395E-2,-3.012684309E-1,5.667445961E-1
1.876377208E0,6.947000903E-1,-4.003220183E-1,6.550501209E-1,1.035353367E0
1.886414208E0,5.943881822E-1,-4.087689060E-1,9.359795970E-1,1.181713644E0
1.896451208E0,4.645893502E-1,1.916822541E-1,1.539390618E-1,5.256258989E-1
1.906487208E0,1.855859470E-1,6.715775684E-1,-1.251745030E0,1.432593520E0
1.916524208E0,9.777129292E-3,7.325157881E-1,-1.237909933E0,1.438435252E0
1.926561208E0,5.110875785E-2,9.276057994E-1,-9.959726143E-1,1.361993419E0
1.936597208E0,-7.499521852E-2,1.103987937E0,-1.437652574E0,1.814182617E0
1.946634208E0,-6.584093463E-1,6.642855057E-1,-1.431327056E0,1.709817312E0
1.956671208E0,-1.191432754E0,3.083274820E-1,-1.196877097E0,1.716709827E0
1.966707208E0,-1.122950165E0,7.889554524E-1,-1.107625782E0,1.763605016E0
1.976744208E0,-6.428095597E-1,8.527053058E-1,-8.224576592E-1,1.347867601E0
1.986781208E0,-5.117196625E-1,-2.309612176E-1,1.144054520E-1,5.729648371E-1
1.996817208E0,-6.799920040E-1,-2.227071710E0,1.932663233E0,3.026123708E0
2.006854208E0,-8.984738016E-1,-3.514974167E0,3.749014821E0,5.217030832E0
2.016891208E0,-4.525528568E-1,-2.833960362E0,4.259945694E0,5.136465004E0
2.026927208E0,3.938181603E-1,-1.562473086E0,3.193736326E0,3.577200946E0
2.036964208E0,6.246346593E-1,-2.478500229E-1,8.409073788E-1,1.076440110E0
2.047001208E0,6.929412478E-1,9.203391722E-1,-1.403313630E0,1.815621356E0
2.057037208E0,-1.335340333E-1,1.205429235E0,-2.512883611E0,2.790246409E0
2.067074208E0,-8.433468372E-1,8.931566361E-1,-2.399669237E0,2.695806950E0
2.077111208E0,-4.266385818E-1,5.092009744E-1,-1.475356590E0,1.618018287E0
2.087147208E0,3.941578835E-1,1.793370277E-2,-2.102904332E-1,4.471063868E-1
2.097184208E0,4.069796580E-1,-7.732416451E-1,7.154173601E-1,1.129317087E0
2.107221208E0,-1.694640040E-2,-9.939623415E-1,1.048666552E0,1.444973998E0
2.117257208E0,-2.716458517E-1,-9.547044280E-1,1.335099428E0,1.663653358E0
2.127294208E0,-3.361160821E-1,-6.439851424E-1,8.893117994E-1,1.148288448E0
2.137330208E0,-2.405024117E-1,-1.013550514E-1,-1.106655729E-1,2.834803794E-1
2.147367208E0,-2.814370143E-1,2.312696582E-1,-6.887499636E-1,7.791463022E-1
2.157404208E0,-5.142579389E-1,2.572333422E-1,-9.021499461E-1,1.069815286E0
2.167440208E0,-8.486689728E-1,-8.262115717E-3,-8.559101647E-1,1.205358660E0
2.177477208E0,-1.097125937E0,-4.246707013E-1,-6.524867016E-1,1.345276708E0
2.187514333E0,-9.723124409E-1,-8.202865881E-1,-5.654163980E-1,1.392105338E0
2.197550333E0,-7.858605212E-1,-1.118287010E0,-1.504611379E-1,1.375056781E0
2.207587333E0,-3.518988866E-1,-8.315316609E-1,5.866458839E-1,1.076768834E0
2.217624333E0,6.651827610E-1,-7.593632787E-2,1.063613205E0,1.256784580E0
2.227660333E0,1.337018484E0,7.291583169E-1,1.231435311E0,1.958500243E0
2.237697333E0,1.373701576E0,1.066490912E0,9.308504194E-1,1.972546929E0
2.247734333E0,8.658124244E-1,7.011247185E-1,1.935989714E-1,1.130790691E0
2.257770333E0,2.783391595E-2,5.500154167E-2,-6.358104426E-1,6.387916838E-1
2.267807333E0,-6.922191167E-1,-3.244286674E-1,-1.631796505E0,1.801993646E0
2.277844333E0,-7.855196285E-1,-5.342326123E-1,-2.016180768E0,2.228773308E0
2.287880333E0,-1.923827505E-1,-4.096155828E-1,-1.669532096E0,1.729778445E0
2.297917333E0,2.737350619E-1,-2.234601170E-1,-6.400695544E-1,7.311322333E-1
2.307954333E0,8.536221492E-1,-2.974674484E-1,3.727997589E-1,9.778227430E-1
2.317990333E0,9.651811767E-1,-6.201054060E-1,6.990106577E-1,1.343399166E0
2.328027333E0,9.827485514E-1,-5.413185605E-1,3.324288279E-1,1.170183500E0
2.338064333E0,1.412274488E0,-1.331586421E-1,-3.607849002E-2,1.418996868E0
2.348100333E0,1.073150014E0,1.025013980E-1,-1.562276620E-1,1.089295447E0
2.358137333E0,-1.028349817E-2,-2.840925273E-1,-4.070773065E-1,4.965140964E-1
2.368174333E0,-6.667311037E-1,-1.004326531E0,-8.679606915E-1,1.485448723E0
2.378210333E0,-1.161375142E0,-1.547379376E0,-1.126592980E0,2.238836059E0
2.388247333E0,-1.377137985E0,-1.599514613E0,-1.163849099E0,2.410290595E0
2.398283333E0,-8.757456744E-1,-9.793451795E-1,-9.853353596E-1,1.642234221E0
2.408320333E0,-4.713083857E-1,-4.288447362E-1,-1.046991910E0,1.225655523E0
2.418357333E0,-2.305405104E-1,-3.935497731E-1,-1.172128172E0,1.257741946E0
2.428393333E0,-3.065127987E-1,-8.361968619E-1,-9.929653913E-1,1.333849900E0
2.438430333E0,-1.237940923E0,-1.852816872E0,-3.945198262E-1,2.262979006E0
2.448467333E0,-2.339754573E0,-2.964731002E0,1.068871021E-3,3.776782032E0
2.458503333E0,-3.000157819E0,-3.495737120E0,-1.136049682E-1,4.608039827E0
2.468540333E0,-3.393981827E0,-3.375804295E0,-7.180889529E-1,4.840539125E0
2.478577333E0,-3.169451669E0,-3.009800170E0,-1.271104576E0,4.551925724E0
2.488613333E0,-2.480510502E0,-2.702956712E0,-1.357952685E0,3.911897600E0
2.498650333E0,-1.843847535E0,-2.790842994E0,-6.258918107E-1,3.402986763E0
2.508687333E0,-1.697335607E0,-2.943962569E0,1.109392226E-1,3.400025188E0
2.518723333E0,-1.856765204E0,-3.493476294E0,6.439304709E-1,4.008316366E0
2.528760333E0,-1.602572122E0,-4.348483941E0,1.270666035E0,4.805428406E0
2.538797333E0,-1.220349575E0,-4.583752510E0,1.588028927E0,5.002187125E0
2.548833333E0,-4.904048073E-1,-4.296645451E0,1.429402152E0,4.554651416E0
2.558870333E0,3.489840496E-1,-3.659068272E0,1.560445856E0,3.993189422E0
2.568907333E0,8.170542473E-1,-2.825985053E0,1.610226712E0,3.353594970E0
2.578943333E0,7.518998927E-1,-2.157332554E0,1.018814762E0,2.501483703E0
2.588980333E0,8.459143496E-1,-1.836683819E0,6.491344929E-1,2.123759433E0
2.599017333E0,1.364840705E0,-1.354059024E0,8.618819261E-1,2.106918709E0
2.609053333E0,1.445008371E0,-6.114108887E-1,7.510830367E-1,1.739539650E0
2.619090333E0,1.626286674E0,-9.941436052E-2,4.625872636E-1,1.693717373E0
2.629127333E0,2.640420156E0,6.075248292E-1,-1.669777679E-1,2.714550900E0
2.639163333E0,3.293582211E0,1.403698669E0,3.110204172E-1,3.593714990E0
2.649200333E0,3.865087314E0,2.688421995E0,9.072007710E-1,4.794739410E0
2.659237333E0,4.154090041E0,4.005631574E0,1.225112132E0,5.899359975E0
2.669273333E0,4.633414375E0,4.998609830E0,1.191084845E0,6.919054278E0
2.679310333E0,4.835611677E0,5.710491378E0,6.129396433E-1,7.507898979E0
2.689347333E0,4.648447566E0,5.669885974E0,3.873183954E-1,7.342049256E0
2.699383333E0,4.527395584E0,5.482292093E0,3.079424429E-1,7.116717355E0
2.709420333E0,4.032217695E0,5.362283839E0,-1.318769324E-1,6.710458929E0
2.719457333E0,3.781951602E0,5.144669183E0,-1.367298290E0,6.529952798E0
2.729493333E0,4.101697819E0,5.220358467E0,-2.945666447E0,7.263127311E0
2.739530333E0,4.104403911E0,5.452956612E0,-5.041914893E0,8.485385853E0
2.749567333E0,3.180152074E0,5.412022009E0,-7.529543796E0,9.802927074E0
2.759603333E0,9.654641819E-1,4.555171320E0,-8.179947134E0,9.412398311E0
2.769640333E0,-9.723118562E-1,2.490506609E0,-6.157705142E0,6.713072779E0
2.779676333E0,-2.130395601E0,-1.418727475E-1,-2.793582122E0,3.516079403E0
2.789713333E0,-3.099136562E0,-2.125601469E0,-4.334915185E-1,3.782954392E0
2.799750333E0,-3.315645509E0,-3.477050881E0,-4.117129791E-1,4.822125626E0
2.809786333E0,-2.213825428E0,-3.319523383E0,-1.675714357E0,4.327617950E0
2.819823333E0,-6.720088005E-1,-1.112557908E0,-1.729152061E0,2.163180015E0
2.829860333E0,1.610831898E-1,2.888635629E-1,-8.124963427E-1,8.772344378E-1
2.839896333E0,9.994786048E-1,9.959147269E-1,-3.630802247E-1,1.456925144E0
2.849933333E0,1.330222265E0,1.461936645E0,-3.306682312E-1,2.004018839E0
2.859970333E0,8.339503616E-1,1.776421537E0,-5.138218828E-1,2.028585618E0
2.870006333E0,5.393120885E-2,2.457615729E0,-6.706958082E-1,2.548061325E0
2.880043333E0,-1.491583782E-1,3.061001607E0,-4.143486115E-1,3.092517394E0
2.890080333E0,-2.820696831E-3,2.611687523E0,2.060640657E-1,2.619805732E0
2.900116333E0,-5.591014051E-1,1.702038522E0,6.395842355E-1,1.902261156E0
2.910153333E0,-1.426506026E0,1.320436950E0,3.308043252E-1,1.971777037E0
2.920190333E0,-1.750933524E0,1.295326667E0,-6.983604473E-1,2.287213741E0
2.930226333E0,-1.957962381E0,1.411171119E0,-1.372445009E0,2.776441232E0
2.940263333E0,-2.258025700E0,1.915612167E0,-1.383075540E0,3.268202562E0
2.950300333E0,-2.323689932E0,2.687452819E0,-1.220753617E0,3.756617754E0
2.960336333E0,-2.255608461E0,2.902785891E0,4.633313218E-1,3.705214080E0
2.970373333E0,-1.299303943E0,9.323823899E-1,1.749083173E0,2.369983039E0
2.980410333E0,1.028905302E-1,-1.859398790E0,1.611863932E0,2.462936389E0
2.990446333E0,6.460676283E-1,-2.947205434E0,1.359017756E0,3.309131686E0
3.000483333E0,1.366729941E0,-2.737210870E0,6.077565251E-1,3.119237419E0
3.010520333E0,2.139490945E0,-2.039513497E0,-1.281271715E0,3.221598053E0
3.020556333E0,2.183480718E0,-2.860048592E-1,-2.115851237E0,3.053884949E0
3.030593333E0,1.963228383E0,1.891590051E0,-2.140128291E0,3.465909362E0
3.040630333E0,2.095371948E0,3.866378379E0,-6.383580744E-1,4.443755890E0
3.050666333E0,2.622702507E0,5.479123487E0,1.309967364E0,6.214127221E0
3.060703333E0,3.271997799E0,5.517316330E0,3.202179120E0,7.169428164E0
3.070740333E0,3.081799568E0,4.327799708E0,3.581851112E0,6.407573353E0
3.080776333E0,2.608752220E0,1.477773244E0,3.369565609E0,4.510362989E0
3.090813333E0,2.463399210E0,-2.293350484E0,2.893994603E0,4.438805793E0
3.100850333E0,2.714634771E0,-5.441537000E0,2.469722974E0,6.563466952E0
3.110886333E0,3.011093282E0,-7.135277154E0,1.187093536E0,7.835052896E0
3.120923333E0,2.355843186E-3,-7.251284158E0,1.781874651E0,7.467007752E0
3.130960333E0,-3.131014413E0,-5.017658889E0,2.743243443E0,6.519627026E0
3.140996333E0,-3.621984061E0,-3.228231974E0,1.402297823E0,5.050414775E0
3.151033333E0,-3.148855437E0,-1.515124673E0,4.492988082E-1,3.523175096E0
3.161069333E0,-1.865284597E0,-5.337279975E-2,-4.369748510E-2,1.866559604E0
3.171106333E0,-5.440068179E-1,6.000933105E-1,-5.632845032E-1,9.865823994E-1
3.181143333E0,6.302918404E-1,9.358129513E-1,-1.118982244E0,1.589067320E0
3.191178833E0,9.508432192E-1,6.990779006E-1,-1.258650007E0,1.725402150E0
3.201215833E0,5.037499076E-1,1.980405164E-1,-1.243060160E0,1.355795920E0
3.211252833E0,-1.099364251E-1,-6.922881138E-1,-1.227476161E0,1.413522754E0
3.221288833E0,-1.209961411E0,-9.251219022E-1,-1.362038720E0,2.043283295E0
3.231325833E0,-1.874183475E0,-5.897601110E-1,-1.873627989E0,2.714933246E0
3.241362833E0,-2.206140432E0,3.952454656E-1,-2.651853801E0,3.472117966E0
3.251398833E0,-2.370671725E0,1.180985534E0,-1.555132492E0,3.071359361E0
3.261435833E0,-2.308821048E0,1.176900085E0,-7.484705007E-1,2.697398104E0
3.271472833E0,-2.053289537E0,1.087816585E0,-3.936639400E-1,2.356759246E0
3.281508833E0,-1.648731796E0,9.176918453E-1,2.192505603E-1,1.899617242E0
3.291545833E0,-1.319637051E0,5.661250806E-1,1.013563451E0,1.757626360E0
3.301582833E0,-1.184688576E0,7.472800076E-2,1.770083156E0,2.131259176E0
3.311618833E0,-9.542363584E-1,-4.319139397E-1,2.346925159E0,2.570053381E0
3.321655833E0,-9.589503837E-1,-8.592875165E-1,2.774482777E0,3.058711421E0
3.331692833E0,-1.007930755E0,-1.034273631E0,2.988518937E0,3.319170346E0
3.341728833E0,-5.054836071E-1,-1.078209025E-1,2.651683062E0,2.701585106E0
3.351765833E0,-3.415843982E-1,5.839356995E-1,2.066324151E0,2.174248444E0
3.361802833E0,-2.736163634E-1,6.248761493E-1,1.171252332E0,1.355421758E0
3.371838833E0,3.218515071E-1,1.245783793E0,6.937663630E-1,1.461806218E0
3.381875833E0,6.591235837E-1,2.263602775E0,2.318807288E-1,2.368989256E0
3.391912833E0,4.051681906E-1,2.972839043E0,-2.619225899E-1,3.011733169E0
3.401948833E0,9.236261845E-3,3.206130669E0,-6.324137950E-1,3.267920804E0
3.411985833E0,-2.330998367E-1,3.060640833E0,-9.784134257E-1,3.221668927E0
3.422022833E0,-5.144851032E-1,2.711450962E0,-1.534580698E0,3.157783900E0
3.432058833E0,-8.990380579E-1,2.306124312E0,-1.775256772E0,3.045983483E0
3.442095833E0,-1.242760198E0,2.165177763E0,-1.362695947E0,2.844184927E0
3.452132833E0,-1.486844907E0,2.279409553E0,-5.307389009E-1,2.772742229E0
3.462168833E0,-1.403784331E0,2.925421633E0,4.222134455E-1,3.272150114E0
3.472205833E0,-1.450144565E0,3.648545038E0,1.142703813E0,4.089079623E0
3.482242833E0,-1.734629733E0,4.086212638E0,1.442467171E0,4.667631688E0
3.492278833E0,-1.760226504E0,4.299076431E0,1.304290448E0,4.825104048E0
3.502315833E0,-1.702495044E0,4.732765585E0,9.088005692E-1,5.111113179E0
3.512352833E0,-1.581465281E0,5.457485865E0,5.072442037E-1,5.704601747E0
3.522388833E0,-1.232190040E0,6.176620300E0,2.949802987E-1,6.305231479E0
3.532425833E0,-6.990337542E-1,6.284124284E0,2.691937488E-2,6.322941630E0
3.542462833E0,1.380912070E0,-6.228279866E0,-1.553950185E0,6.566060418E0
3.552498833E0,4.558602466E0,-2.466228795E1,-8.014520486E-1,2.509286011E1
3.562535833E0,5.961690686E0,-2.787847641E1,3.181407471E0,2.868575529E1
3.572572833E0,6.352934902E0,-1.999661214E1,2.143829140E0,2.109076297E1
3.582608833E0,5.909484406E0,-1.173667744E1,-3.770248108E-1,1.314586440E1
3.592645833E0,4.195806709E0,-5.216557776E0,-7.596749353E-1,6.737534785E0
3.602681833E0,1.076343324E0,-9.554543334E-1,-2.848816822E-1,1.467162400E0
3.612718833E0,-2.657231193E0,-1.971704507E-1,-3.135610324E-1,2.682922720E0
3.622755833E0,-4.905416322E0,5.944185877E-1,-9.972046226E-1,5.040918548E0
3.632792833E0,-5.439705652E0,2.126118363E0,-1.870426054E0,6.132639766E0
3.642828833E0,-4.990926003E0,3.424414830E0,-2.121902520E0,6.413924665E0
3.652865833E0,-4.032852410E0,3.980994916E0,-1.647713796E0,5.901455738E0
3.662901833E0,-1.962179100E0,3.101546200E0,-9.190290304E-1,3.783430984E0
3.672938833E0,-8.431989209E-2,1.598779033E0,-4.982185878E-2,1.601776032E0
3.682975833E0,7.205203713E-1,1.949911934E-1,7.823277066E-1,1.081299131E0
3.693011833E0,8.621761141E-1,-9.466472572E-1,1.296148201E0,1.821946442E0
3.703048833E0,6.470028904E-1,-1.600630846E0,1.413118241E0,2.231038998E0
3.713085833E0,2.537425910E-1,-1.574780890E0,1.139021749E0,1.960023137E0
3.723121833E0,-3.988944937E-2,-1.158573741E0,6.670621292E-1,1.337481277E0
3.733158833E0,-1.858964707E-1,-6.027672422E-1,2.758559201E-1,6.884637498E-1
3.743195833E0,-2.573467234E-1,5.366632998E-2,6.133071408E-2,2.699423411E-1
3.753231833E0,-1.941510582E-1,5.915598840E-1,6.358386554E-2,6.258439403E-1
3.763268833E0,-1.010090424E-1,9.238448703E-1,3.372421827E-1,9.886477942E-1
3.773305833E0,-2.085511789E-2,9.293523628E-1,6.531795236E-1,1.136122458E0
3.783341833E0,-4.983192695E-2,7.690053374E-1,8.065082091E-1,1.115485509E0
3.793378833E0,-1.823953225E-1,4.521774656E-1,7.817627194E-1,9.213498051E-1
3.803415833E0,-2.490728036E-1,1.511610496E-1,5.059899759E-1,5.838773674E-1
3.813451833E0,-1.161215733E-1,-6.166882932E-2,2.211257623E-1,2.572622534E-1
3.823488833E0,-3.504146805E-2,-1.777454156E-1,3.180052087E-2,1.839364302E-1
3.833525833E0,-5.809784336E-2,-3.510095251E-1,-7.298976973E-2,3.631949237E-1
3.843561833E0,-5.540145468E-2,-5.154191959E-1,-2.371502761E-1,5.700583497E-1
3.853598833E0,-5.489961740E-2,-4.634228307E-1,-4.574990165E-1,6.535136097E-1
3.863635833E0,-4.050205484E-2,-2.574423802E-1,-7.214133143E-1,7.670424796E-1
3.873671833E0,-4.187520035E-2,3.826944172E-2,-8.503202996E-1,8.522104755E-1
3.883708833E0,2.502606472E-2,1.833569884E-1,-6.675386041E-1,6.927148599E-1
3.893745833E0,-7.993966062E-3,2.658670485E-1,-3.295648617E-1,4.235117342E-1
3.903781833E0,-5.009528920E-3,2.962766629E-1,-5.436923839E-2,3.012656145E-1
3.913818833E0,1.460253305E-1,2.755506223E-1,1.345292294E-1,3.396316478E-1
3.923855833E0,3.605138817E-1,2.101740736E-1,2.452561980E-1,4.840392575E-1
3.933891833E0,4.452681032E-1,6.088120937E-2,2.935321261E-1,5.367786456E-1
3.943928833E0,1.541004084E-1,-3.197251672E-1,2.177332809E-1,4.163879201E-1
3.953965833E0,1.655924164E-2,-2.429483020E-1,1.716062777E-1,2.979040122E-1
3.964001833E0,2.523986268E-1,-9.817124248E-2,-9.462432146E-2,2.868735294E-1
3.974038833E0,4.712548472E-1,1.405559546E-1,-1.544911120E-1,5.154654315E-1
3.984075833E0,7.009975415E-1,2.205563897E-1,-8.111147918E-2,7.393387223E-1
3.994111833E0,8.270535707E-1,2.500567621E-1,8.974730507E-2,8.686774844E-1
4.004148833E0,6.783189695E-1,3.093054289E-1,3.680531354E-1,8.314142067E-1
4.014185833E0,5.809541677E-1,2.187209487E-1,6.444677570E-1,8.948101967E-1
4.024221833E0,4.542173033E-1,9.987804472E-2,7.889612997E-1,9.158323617E-1
4.034258833E0,1.593133838E-1,2.654752851E-2,7.750542819E-1,7.917036475E-1
4.044294833E0,-1.796848274E-1,-4.310567379E-3,6.662780906E-1,6.900954370E-1
4.054331833E0,-3.858644121E-1,-4.408332825E-2,4.904995322E-1,6.256392535E-1
4.064368833E0,-5.079387067E-1,-8.171776235E-2,2.242056370E-1,5.612020047E-1
4.074404833E0,-6.010718055E-1,-8.738429904E-2,-3.226150073E-2,6.082467719E-1
4.084441833E0,-6.120188530E-1,-1.059568101E-1,-1.996028924E-1,6.524072629E-1
4.094478833E0,-4.685350513E-1,-2.834852940E-1,-2.788467709E-1,6.145278902E-1
4.104514833E0,-6.007529860E-1,-1.251964885E-1,-2.922621109E-1,6.797024734E-1
4.114551833E0,-1.001645144E0,4.842593837E-1,-8.118274212E-2,1.115522650E0
4.124588833E0,-6.118759251E-1,5.132475400E-1,1.235189223E-1,8.081287702E-1
4.134624833E0,2.615974847E-2,1.334521723E-1,7.900348485E-2,1.572748084E-1
4.144661833E0,3.141745515E-3,1.167343980E-1,-2.299651444E-2,1.190194519E-1
4.154698833E0,1.665213928E-3,-6.545256257E-2,-8.541671097E-2,1.076235355E-1
4.164734833E0,3.040906627E-1,-5.277047807E-1,-1.144088142E-1,6.197038353E-1
4.174771833E0,3.964381880E-1,-8.858005464E-1,-1.231348334E-1,9.782474289E-1
4.184808833E0,2.438620391E-1,-9.331594849E-1,-1.976889525E-1,9.845487496E-1
4.194844958E0,1.179202499E-1,-5.058549052E-1,-3.203671914E-1,6.102700286E-1
4.204881958E0,1.132579725E-1,-9.699946046E-3,-3.034787516E-1,3.240691437E-1
4.214918958E0,1.353025602E-1,3.140790957E-1,-9.761268720E-2,3.556412488E-1
4.224954958E0,1.400201669E-1,4.595525587E-1,2.085416771E-1,5.237211399E-1
4.234991958E0,1.779000744E-1,3.933585691E-1,4.422511592E-1,6.180335656E-1
4.245028958E0,1.344467471E-1,1.910273659E-1,6.073899047E-1,6.507609997E-1
4.255064958E0,-2.440938447E-2,-2.862153590E-2,6.410792955E-1,6.421819629E-1
4.265101958E0,-8.953421060E-2,-2.237670958E-1,5.542960902E-1,6.044272030E-1
4.275138958E0,-2.632617485E-2,-2.700372827E-1,3.489321555E-1,4.420032247E-1
4.285174958E0,-1.066824496E-3,-1.883978730E-1,1.745026229E-1,2.567996536E-1
4.295211958E0,2.424811095E-2,-9.245675862E-2,1.106083433E-1,1.461862808E-1
4.305248958E0,1.557972338E-1,-5.916914463E-2,9.691811107E-2,1.927871520E-1
4.315284958E0,3.405918333E-1,4.545976281E-2,7.968475856E-2,3.527308431E-1
4.325321958E0,4.224588824E-1,2.522675943E-1,2.826461454E-1,5.674498127E-1
4.335358958E0,4.154637121E-1,4.779870754E-1,7.067709361E-1,9.490031067E-1
4.345394958E0,3.515094620E-1,6.015749949E-1,1.214956615E0,1.400560942E0
4.355431958E0,1.660487916E-1,7.014910465E-1,1.664729778E0,1.814107804E0
4.365468958E0,3.058247276E-2,7.864978677E-1,1.956566066E0,2.108948779E0
4.375504958E0,3.331209920E-2,7.736708307E-1,1.955152794E0,2.102926222E0
4.385541958E0,1.228450307E-1,7.097747970E-1,1.688563614E0,1.835788180E0
4.395578958E0,2.409698235E-1,5.693965977E-1,1.327290471E0,1.464233225E0
4.405614958E0,2.978085604E-1,4.298960656E-1,9.491382442E-1,1.083680752E0
4.415651958E0,3.309268244E-1,3.194240355E-1,5.491371650E-1,7.163071293E-1
4.425688958E0,4.092825839E-1,2.519056517E-1,1.867097088E-1,5.155862742E-1
4.435724958E0,4.840432560E-1,2.098454601E-1,-9.010025762E-2,5.352112174E-1
4.445761958E0,5.018470775E-1,1.303940785E-1,-1.953391758E-1,5.540852809E-1
4.455798958E0,4.569368798E-1,5.686066389E-2,-1.891153995E-1,4.977841717E-1
4.465834958E0,3.918774694E-1,-6.397438645E-3,-1.783074061E-1,4.305838006E-1
4.475871958E0,3.319372963E-1,-1.034957170E-1,-1.731401485E-1,3.884214762E-1
4.485908958E0,2.965310899E-1,-2.487376302E-1,-2.329073902E-1,4.517155614E-1
4.495944958E0,2.354922981E-1,-3.692083991E-1,-4.025913227E-1,5.948539631E-1
4.505981958E0,1.702815910E-1,-4.741758603E-1,-6.880920788E-1,8.528242935E-1
4.516018958E0,1.814310618E-1,-5.298659116E-1,-1.008231887E0,1.153345851E0
4.526054958E0,1.864600327E-1,-4.988815159E-1,-1.215392305E0,1.326962157E0
4.536091958E0,2.160041130E-1,-4.148733991E-1,-1.173250326E0,1.263049501E0
4.546128958E0,2.214426083E-1,-3.352115178E-1,-8.396433569E-1,9.308085503E-1
4.556164958E0,1.679536682E-1,-2.651139271E-1,-3.850392238E-1,4.967383948E-1
4.566201958E0,1.127957135E-1,-2.391540438E-1,-5.198006608E-2,2.694799750E-1
4.576238958E0,6.490438610E-2,-2.405018270E-1,1.560224247E-1,2.939331644E-1
4.586274958E0,1.109679470E-1,-2.529663366E-1,2.375016207E-1,3.642977800E-1
4.596311958E0,1.819546799E-1,-2.146928018E-1,1.770284738E-1,3.324749393E-1
4.606348958E0,2.735921706E-1,-1.133482754E-1,-3.490787745E-4,2.961429202E-1
4.616384958E0,3.325081307E-1,9.025177360E-3,-1.835903654E-1,3.799322744E-1
4.626421958E0,4.016899013E-1,8.636454463E-2,-2.128188423E-1,4.627153239E-1
4.636458958E0,4.737819772E-1,1.352589619E-1,-1.355473027E-1,5.110160663E-1
4.646494958E0,5.289480449E-1,1.576292396E-1,4.156259358E-2,5.534983835E-1
4.656531958E0,5.727278296E-1,1.837078214E-1,2.611225446E-1,6.557062709E-1
4.666567958E0,5.957210550E-1,1.787242395E-1,4.492491800E-1,7.672357883E-1
4.676604958E0,6.881016536E-1,1.698879272E-1,6.014650673E-1,9.295730314E-1
4.686641958E0,8.315449633E-1,1.774998325E-1,7.065804631E-1,1.105544738E0
4.696678958E0,9.472463775E-1,2.009132534E-1,7.827930719E-1,1.245153335E0
4.706714958E0,1.032826007E0,2.393826699E-1,8.813269148E-1,1.378684428E0
4.716751958E0,1.100158449E0,2.256773812E-1,9.966345191E-1,1.501518984E0
4.726788958E0,1.177068411E0,1.060889572E-1,1.085860691E0,1.604941853E0
4.736824958E0,1.230330187E0,-1.630788445E-3,1.045096827E0,1.614293160E0
4.746861958E0,1.280981839E0,-2.047461033E-2,9.140776813E-1,1.573808022E0
4.756897958E0,1.320404498E0,-1.672537565E-2,8.165917325E-1,1.552600990E0
4.766934958E0,1.302214687E0,-4.172280729E-2,7.558450091E-1,1.506255477E0
4.776971958E0,1.220757783E0,-1.626976061E-1,7.039679271E-1,1.418552403E0
4.787008958E0,1.099762812E0,-2.893424499E-1,5.611789209E-1,1.268116350E0
4.797044958E0,9.654139689E-1,-2.805388820E-1,3.227470082E-1,1.055884381E0
4.807081958E0,8.113268995E-1,-1.802000767E-1,8.234220844E-2,8.351668365E-1
4.817117958E0,6.349365762E-1,-4.602635801E-2,-1.200743641E-1,6.478277042E-1
4.827154958E0,4.956979993E-1,1.546781498E-1,-1.500652814E-1,5.405195882E-1
4.837191958E0,4.092529824E-1,3.001691544E-1,1.381790431E-1,5.260066281E-1
4.847227958E0,3.106468532E-1,3.094580412E-1,5.438121057E-1,6.985680732E-1
4.857264958E0,2.472451285E-1,1.641909850E-1,9.782625675E-1,1.022294715E0
4.867301958E0,2.359319356E-1,-6.334581077E-2,1.296654570E0,1.319465666E0
4.877337958E0,2.482559293E-1,-1.636735064E-1,1.427270842E0,1.457917035E0
4.887374958E0,2.318021934E-1,-9.195974529E-2,1.469055630E0,1.490071574E0
4.897411958E0,1.826617545E-1,1.327341342E-1,1.473188442E0,1.490391845E0
4.907447958E0,1.147214940E-1,3.748182178E-1,1.476990886E0,1.528120347E0
4.917484958E0,4.400168650E-2,5.418328232E-1,1.453194473E0,1.551545401E0
4.927521958E0,-5.606807381E-2,6.194604582E-1,1.415319718E0,1.545964033E0
4.937557958E0,-1.555684615E-1,6.033893859E-1,1.309604398E0,1.450290997E0
4.947594958E0,-2.402357787E-1,5.585915279E-1,1.097935191E0,1.255069484E0
4.957631958E0,-2.346708374E-1,4.464173734E-1,7.175118327E-1,8.770302750E-1
4.967667958E0,-1.306904958E-1,2.351048470E-1,1.374809039E-1,3.020849114E-1
4.977704958E0,-1.262972999E-2,4.016686320E-2,-4.777373993E-1,4.795893136E-1
4.987741958E0,6.743900791E-2,-1.307577753E-1,-9.352679908E-1,9.467691536E-1
4.997777958E0,1.166280518E-1,-2.594713640E-1,-9.773410463E-1,1.017901278E0
5.007814958E0,1.358789860E-1,-3.475473887E-1,-5.319212079E-1,6.497633859E-1
5.017851958E0,2.076433986E-2,-3.113794363E-1,2.959100060E-1,4.300593480E-1
5.027887958E0,-1.991305105E-1,-2.485645527E-1,1.180221888E0,1.222440592E0
5.037924958E0,-4.349777711E-1,-1.988246280E-1,1.884141283E0,1.943894356E0
5.047961958E0,-6.868463295E-1,-1.358740890E-1,2.272832605E0,2.378232053E0
5.057997958E0,-9.073991378E-1,-1.083734643E-1,2.386626438E0,2.555602425E0
5.068034958E0,-1.161060416E0,-1.300391525E-1,2.301873386E0,2.581393530E0
5.078071958E0,-1.513979934E0,-3.150538266E-1,2.070963331E0,2.584624397E0
5.088107958E0,-1.917944621E0,-5.644785047E-1,1.772999747E0,2.672204269E0
5.098144958E0,-2.275190494E0,-7.674072933E-1,1.488601702E0,2.825126682E0
5.108181958E0,-2.526426055E0,-8.737506044E-1,1.235268745E0,2.944852730E0
5.118217958E0,-2.629739924E0,-7.925321943E-1,9.908304998E-1,2.919826095E0
5.128254958E0,-2.607573422E0,-5.594592547E-1,6.698172641E-1,2.749743438E0
5.138291958E0,-2.408665178E0,-2.585252845E-1,4.297622374E-1,2.460324947E0
5.148327958E0,-2.106103636E0,-9.210007846E-2,2.953429357E-1,2.128704394E0
5.158364958E0,-1.751457143E0,-7.718909383E-2,3.098849610E-1,1.780333948E0
5.168401958E0,-1.199463028E0,-1.356004393E-1,4.308414142E-1,1.281687699E0
5.178437958E0,-6.891024046E-1,-2.000823641E-1,5.505409352E-1,9.044282159E-1
5.188474958E0,-1.612567060E-1,-2.614079618E-1,4.593748033E-1,5.525966501E-1
5.198511500E0,4.183193460E-1,-2.873444563E-1,1.623071583E-1,5.328241037E-1
5.208547500E0,8.196352082E-1,-2.602969909E-1,-1.779996233E-1,8.782028604E-1
5.218584500E0,1.028609141E0,-2.243418771E-1,-5.330718669E-1,1.180055786E0
5.228621500E0,1.237736709E0,-2.466349715E-1,-9.056493585E-1,1.553390399E0
5.238657500E0,1.479404763E0,-2.044572508E-1,-1.363015205E0,2.021942548E0
5.248694500E0,1.743685462E0,-6.562739432E-2,-1.763529596E0,2.480883428E0
5.258731500E0,1.927543703E0,1.685372204E-1,-1.814753691E0,2.652764686E0
5.268767500E0,1.836093689E0,4.042215264E-1,-1.459786624E0,2.380254621E0
5.278804500E0,1.609180937E0,7.290922433E-1,-8.787101396E-1,1.973111831E0
5.288841500E0,1.279737551E0,1.013594953E0,-2.691964531E-1,1.654560262E0
5.298877500E0,1.074336779E0,1.300691487E0,9.870787069E-2,1.689893814E0
5.308914500E0,1.004579423E0,1.595066636E0,3.908910441E-1,1.925152773E0
5.318951500E0,9.156760177E-1,1.710035174E0,7.335801275E-1,2.073842489E0
5.328987500E0,7.292897330E-1,1.677950333E0,1.058836030E0,2.113886130E0
5.339024500E0,5.690997054E-1,1.599495317E0,1.292176187E0,2.133536745E0
5.349061500E0,4.459697691E-1,1.515978951E0,1.322614453E0,2.060677123E0
5.359097500E0,2.318748633E-1,1.425326058E0,1.245701348E0,1.907116193E0
5.369134500E0,-4.734400978E-2,1.287791360E0,1.172693086E0,1.742371119E0
5.379171500E0,-3.208592712E-1,1.077188101E0,1.214301873E0,1.654634073E0
5.389207500E0,-4.851967289E-1,8.023344666E-1,1.368081232E0,1.658554407E0
5.399244500E0,-5.689124483E-1,5.147303939E-1,1.397056525E0,1.593855604E0
5.409281500E0,-6.201816391E-1,2.451088482E-1,1.314883264E0,1.474320729E0
5.419317500E0,-5.873531047E-1,3.725378036E-2,1.337170511E0,1.460957388E0
5.429354500E0,-5.402871848E-1,-1.794545567E-1,1.455738012E0,1.563101832E0
5.439391500E0,-4.126407129E-1,-3.664081675E-1,1.535875272E0,1.632004949E0
5.449427500E0,-2.593756159E-1,-5.077523267E-1,1.443588667E0,1.552107076E0
5.459464500E0,-1.144360037E-1,-5.543932271E-1,1.168357303E0,1.298270479E0
5.469501500E0,-2.943758793E-2,-5.393617898E-1,8.057656127E-1,9.700700668E-1
5.479537500E0,2.824431740E-2,-3.767589086E-1,6.238166338E-1,7.293094058E-1
5.489574500E0,1.368376371E-2,-1.872097188E-1,6.337446213E-1,6.609591282E-1
5.499611500E0,-2.169004546E-2,-8.060211360E-2,7.030253559E-1,7.079631416E-1
5.509647500E0,-5.163639598E-3,-6.098236620E-2,6.627070498E-1,6.655269687E-1
5.519684500E0,-3.811544068E-3,-1.116911745E-1,5.518719077E-1,5.630737508E-1
5.529721500E0,-8.846544921E-2,-1.557101834E-1,4.706138096E-1,5.035366468E-1
5.539757500E0,-1.888040718E-1,-7.249144077E-2,4.576598880E-1,5.003544340E-1
5.549794500E0,-1.236590362E-1,1.629151225E-1,5.675412762E-1,6.032710789E-1
5.559831500E0,2.253235515E-2,3.196842366E-1,8.159385985E-1,8.766193671E-1
5.569867500E0,1.548706328E-1,2.864983642E-1,1.203026029E0,1.246329752E0
5.579904500E0,1.323067393E-1,4.975980520E-2,1.622310567E0,1.628457150E0
5.589941500E0,-8.865361992E-2,-3.182791507E-1,1.991514727E0,2.018735245E0
5.599977500E0,-3.950931822E-1,-5.680768812E-1,2.113549188E0,2.223937979E0
5.610014500E0,-4.460550288E-1,-6.607757145E-1,1.541434219E0,1.735398826E0
5.620051500E0,-6.685432289E-2,-7.584288937E-1,2.364716336E-2,7.617368808E-1
5.630087500E0,9.324571612E-1,-4.954684961E-1,-1.798615375E0,2.085661204E0
5.640124500E0,1.831662084E0,5.307693064E-2,-3.009393497E0,3.523386491E0
5.650161500E0,2.080436406E0,6.175548506E-1,-3.140120866E0,3.817060215E0
5.660197500E0,1.684065351E0,9.361439037E-1,-2.151998139E0,2.888518220E0
5.670234500E0,1.248724358E0,7.631815106E-1,-1.231180372E0,1.912475791E0
5.680271500E0,9.565910321E-1,1.197147238E-1,-7.071811183E-1,1.195618314E0
5.690307500E0,1.048947876E0,-7.551100141E-1,-5.884326468E-1,1.420118221E0
5.700344500E0,1.295062080E0,-1.733957303E0,-7.633599968E-1,2.294888277E0
5.710381500E0,1.428348192E0,-2.408045374E0,-8.366039743E-1,2.922116919E0
5.720417500E0,1.150330117E0,-2.420455504E0,-9.689824516E-1,2.849700198E0
5.730454500E0,1.103338823E0,-1.602172757E0,-1.182009528E0,2.276282193E0
5.740491500E0,1.229682023E0,-6.147370774E-1,-1.292362859E0,1.886854873E0
5.750527500E0,1.027712470E0,1.966939026E-1,-1.300904472E0,1.669501081E0
5.760564500E0,7.916561352E-1,5.985467219E-1,-1.209986701E0,1.564942628E0
5.770601500E0,7.011196753E-1,5.742170423E-1,-1.005964921E0,1.353979111E0
5.780637500E0,7.024431194E-1,2.314421511E-1,-6.801998726E-1,1.004820219E0
5.790674500E0,7.093060695E-1,-2.173889530E-1,-3.066298892E-1,8.027421417E-1
5.800711500E0,6.712526093E-1,-6.397912270E-1,-9.064368322E-2,9.317344885E-1
5.810748500E0,6.717395362E-1,-9.068744963E-1,-1.319628865E-1,1.136252419E0
5.820784500E0,8.319810194E-1,-9.341581893E-1,-3.594571437E-1,1.301558058E0
5.830821500E0,1.021853633E0,-8.128132617E-1,-5.801930429E-1,1.428801670E0
5.840858500E0,1.108096921E0,-7.077902520E-1,-6.595833211E-1,1.471018690E0
5.850894500E0,1.195991682E0,-6.507149953E-1,-6.908075988E-1,1.526774786E0
5.860931500E0,1.205195200E0,-5.533910143E-1,-8.524253704E-1,1.576504391E0
5.870967500E0,1.093585301E0,-3.583933890E-1,-1.161293866E0,1.634924486E0
5.881004500E0,8.476879562E-1,-2.029942775E-1,-1.629725422E0,1.848184649E0
5.891041500E0,6.634090812E-1,-8.334621191E-2,-2.182870268E0,2.282976305E0
5.901077500E0,6.436608412E-1,3.069495857E-2,-2.732120869E0,2.807084948E0
5.911114500E0,7.364750109E-1,1.801041824E-1,-3.155845199E0,3.245641982E0
5.921151500E0,6.871419062E-1,3.089008015E-1,-3.289266965E0,3.374442306E0
5.931188500E0,4.881374033E-1,3.448623472E-1,-3.086891908E0,3.144218474E0
5.941224500E0,4.083297801E-1,2.129111552E-1,-2.733523616E0,2.772041798E0
5.951261500E0,4.623367835E-1,1.200667262E-1,-2.348768786E0,2.396849209E0
5.961298500E0,6.468004306E-1,9.805195928E-2,-1.984093734E0,2.089160819E0
5.971334500E0,8.368197365E-1,4.394825757E-2,-1.612010112E0,1.816803601E0
5.981371500E0,9.715346881E-1,-3.477280676E-2,-1.175193867E0,1.525178489E0
5.991408500E0,1.079357710E0,-9.062891901E-2,-7.418175387E-1,1.312828979E0
6.001444500E0,1.142066613E0,-1.219963074E-1,-4.265888804E-1,1.225225416E0
6.011481500E0,1.227562115E0,-1.088763249E-1,-2.736327356E-1,1.262393629E0
6.021518500E0,1.368630578E0,-6.376388669E-3,-2.378640018E-1,1.389161474E0
6.031554500E0,1.501973261E0,1.335749638E-1,-1.597209348E-1,1.516336614E0
6.041591500E0,1.637329433E0,2.333027351E-1,3.505054951E-2,1.654238913E0
6.051628500E0,1.665505996E0,3.843965417E-1,3.466470636E-1,1.744085752E0
6.061664500E0,1.542345069E0,6.123075593E-1,6.815150575E-1,1.793937467E0
6.071701500E0,1.357675235E0,7.276035422E-1,9.855932218E-1,1.828683394E0
6.081738500E0,1.116176969E0,6.081186140E-1,1.168245036E0,1.726399647E0
6.091774500E0,7.961340791E-1,2.626955187E-1,1.108770082E0,1.390039389E0
6.101811500E0,4.603173014E-1,-6.743126035E-2,8.190301676E-1,9.419391744E-1
6.111848500E0,3.318588705E-1,-2.103623539E-1,4.702867310E-1,6.128231713E-1
6.121884500E0,2.922022500E-1,-3.164782083E-1,2.516774641E-1,4.988809048E-1
6.131921500E0,6.667799279E-3,-3.649533802E-1,-4.536664590E-2,3.678227316E-1
6.141958500E0,-2.691820543E-1,-4.039999169E-1,-1.853150748E-1,5.196312040E-1
6.151994500E0,-4.404154989E-1,-3.777476728E-1,-1.544711584E-1,6.004335557E-1
6.162031500E0,-4.621639983E-1,-3.352553719E-1,-1.082652909E-1,5.811308793E-1
6.172068500E0,-4.614668640E-1,-4.084613425E-1,-3.219769299E-2,6.171134630E-1
6.182104500E0,-4.594637541E-1,-5.053116989E-1,1.040714485E-1,6.908528937E-1
6.192141583E0,-4.101398588E-1,-4.381499952E-1,2.937478884E-1,6.681900508E-1
6.202178583E0,-2.815037457E-1,-2.828912169E-1,4.484675534E-1,6.003290313E-1
6.212214583E0,-9.221534170E-2,-1.572824997E-1,5.686610180E-1,5.971740177E-1
6.222251583E0,9.465955094E-2,-2.519857585E-2,7.130059683E-1,7.197033484E-1
6.232288583E0,3.556742144E-1,1.216834813E-1,8.279360618E-1,9.092794613E-1
6.242324583E0,5.584561649E-1,3.458592975E-1,9.149683584E-1,1.126347654E0
6.252361583E0,5.551003017E-1,5.411808586E-1,1.029885442E0,1.289060545E0
6.262398583E0,4.881056821E-1,5.508620936E-1,1.064547517E0,1.294201537E0
6.272434583E0,3.702532965E-1,5.552948678E-1,9.521611816E-1,1.162777197E0
6.282471583E0,1.853095199E-1,4.770550293E-1,7.239887204E-1,8.866119706E-1
6.292508583E0,-1.671792776E-1,3.548534846E-1,3.737954666E-1,5.418421886E-1
6.302544583E0,-5.911021931E-1,2.461268485E-1,-1.627578324E-1,6.606590197E-1
6.312581583E0,-8.850880632E-1,4.994516194E-2,-8.430334264E-1,1.223348175E0
6.322618583E0,-1.060083241E0,-2.222169989E-1,-1.552866696E0,1.893291273E0
6.332654583E0,-1.227767060E0,-3.906945777E-1,-2.145150465E0,2.502343846E0
6.342691583E0,-1.353769587E0,-4.111288422E-1,-2.384355379E0,2.772520441E0
6.352728583E0,-1.341791420E0,-2.626095647E-1,-2.081194205E0,2.490127972E0
6.362764583E0,-1.183769978E0,3.878165781E-2,-1.363789376E0,1.806304747E0
6.372801583E0,-8.118048363E-1,3.932135582E-1,-5.030044242E-1,1.032791095E0
6.382838583E0,-2.393147326E-1,5.578892773E-1,3.002907034E-1,6.772639763E-1
6.392875583E0,2.222305206E-1,5.653210884E-1,9.556413712E-1,1.132353641E0
6.402911583E0,5.278230406E-1,4.422313517E-1,1.482865584E0,1.634948339E0
6.412948583E0,6.685017867E-1,2.091665983E-1,1.854552033E0,1.982424916E0
6.422985583E0,6.826663012E-1,-4.736478567E-2,2.113296003E0,2.221327688E0
6.433021583E0,5.766583280E-1,-2.565161812E-1,2.257448580E0,2.344015672E0
6.443058583E0,2.633130578E-1,-2.185613197E-1,2.134440120E0,2.161697815E0
6.453095583E0,-7.314490367E-2,-7.172253191E-2,1.491328259E0,1.494842559E0
6.463131583E0,-4.953339005E-1,1.267261201E-1,4.173567116E-1,6.600013691E-1
6.473168583E0,-9.311230458E-1,3.061783379E-1,-8.180606262E-1,1.276698276E0
6.483205583E0,-1.165740527E0,3.919645929E-1,-1.926213169E0,2.285363077E0
6.493241583E0,-1.343444282E0,3.794755250E-1,-2.630751784E0,2.978204016E0
6.503278583E0,-1.472317499E0,3.467410576E-1,-2.802420189E0,3.184573299E0
6.513315583E0,-1.476557023E0,4.956292945E-1,-2.289074416E0,2.768705604E0
6.523351583E0,-1.303989317E0,7.201103354E-1,-1.382484094E0,2.032291638E0
6.533388583E0,-9.408941817E-1,8.784418255E-1,-4.079345083E-1,1.350315691E0
6.543425583E0,-5.398594244E-1,7.586990350E-1,3.667460635E-1,1.000787240E0
6.553461583E0,-2.983853151E-1,3.093808579E-1,7.069196016E-1,8.273364700E-1
6.563498583E0,-2.056033416E-1,-4.301983666E-1,5.704970437E-1,7.435121019E-1
6.573535583E0,1.218241800E-2,-1.085858352E0,3.274451729E-1,1.134220928E0
6.583571583E0,1.502535983E-1,-1.247767754E0,7.826556623E-2,1.259216427E0
6.593608583E0,1.329544280E-1,-8.102790785E-1,-1.965220676E-1,8.443044404E-1
6.603645583E0,1.178799406E-1,-3.141708970E-3,-3.538769996E-1,3.730073479E-1
6.613681583E0,2.910628104E-1,6.408098119E-1,-2.986716825E-1,7.645649407E-1
6.623718583E0,4.461140857E-1,8.153106076E-1,-1.864424910E-1,9.478976562E-1
6.633755583E0,4.740336999E-1,4.937552619E-1,-4.993814528E-2,6.862915019E-1
6.643791583E0,3.852770228E-1,-2.933548093E-3,-6.042739235E-2,3.899980253E-1
6.653828583E0,2.966888186E-1,-3.431491131E-1,-1.839235105E-1,4.894930302E-1
6.663865583E0,8.347309649E-2,-4.784519291E-1,-3.111887439E-1,5.768209780E-1
6.673901583E0,-3.667873594E-1,-5.162413144E-1,-5.131493068E-1,8.150829852E-1
6.683938583E0,-8.150164926E-1,-4.827624965E-1,-8.366546988E-1,1.263844372E0
6.693975583E0,-1.124448733E0,-4.234886867E-1,-1.072372334E0,1.610499936E0
6.704012583E0,-1.264331161E0,-4.318466967E-1,-1.093812831E0,1.726687976E0
6.714048583E0,-1.245061077E0,-4.084502327E-1,-1.005324066E0,1.651570512E0
6.724085583E0,-1.075289802E0,-3.191264123E-1,-9.118558124E-1,1.445534797E0
6.734122583E0,-7.117537140E-1,-1.163215846E-1,-7.211803758E-1,1.019914308E0
6.744158583E0,-1.994981907E-1,2.629843712E-2,-4.112913217E-1,4.578773714E-1
6.754195583E0,2.013844659E-1,1.190703607E-1,-7.777907789E-2,2.465421645E-1
6.764232583E0,4.851627054E-1,2.391786021E-1,2.138490486E-1,5.816533934E-1
6.774268583E0,6.731990013E-1,2.589749354E-1,4.610126084E-1,8.560359441E-1
6.784305583E0,7.400464171E-1,2.136420572E-1,6.252691553E-1,9.921054100E-1
6.794342583E0,7.345337353E-1,1.479673004E-1,6.493595376E-1,9.915149718E-1
6.804378583E0,7.071414303E-1,1.127103442E-1,6.250398713E-1,9.504880141E-1
6.814415583E0,6.371755482E-1,1.001078403E-1,5.739954329E-1,8.634147415E-1
6.824452583E0,4.575932298E-1,6.172847092E-2,4.587537559E-1,6.508893736E-1
6.834488583E0,1.109367375E-1,8.911156654E-4,1.806842262E-1,2.120248650E-1
6.844525583E0,-2.332657515E-1,-5.516438663E-2,-1.983884257E-1,3.111494622E-1
6.854562583E0,-4.318150487E-1,-9.494825721E-2,-4.643279797E-1,6.411551143E-1
6.864598583E0,-4.984843437E-1,-1.075835055E-1,-5.653526634E-1,7.613701371E-1
6.874635583E0,-4.878295474E-1,-1.497045082E-1,-4.958029568E-1,7.114841383E-1
6.884672583E0,-4.075819943E-1,-1.397414374E-1,-2.708716073E-1,5.089422158E-1
6.894708583E0,-2.415894091E-1,-1.024262613E-1,-1.495425403E-2,2.628311460E-1
6.904745583E0,-9.270833507E-2,-6.368436456E-2,1.847076952E-1,2.162578701E-1
6.914782583E0,2.481953010E-2,-4.389037013E-2,2.168043045E-1,2.225903864E-1
6.924818583E0,8.870028801E-2,-2.083947659E-2,1.324237201E-1,1.607422363E-1
6.934855583E0,1.363210355E-1,-5.246121883E-3,9.178484045E-2,1.644244613E-1
6.944892583E0,1.866455356E-1,3.328235149E-2,9.233747542E-2,2.108802510E-1
6.954928583E0,2.014691044E-1,7.134597123E-2,1.700358617E-1,2.731158031E-1
6.964965583E0,2.099591884E-1,8.729951441E-2,2.663307327E-1,3.501944106E-1
6.975002583E0,1.943380594E-1,1.134336448E-1,2.511740919E-1,3.372282574E-1
6.985039583E0,1.594690660E-1,1.226745844E-1,2.047887149E-1,2.870850996E-1
6.995075583E0,1.482833424E-1,1.221033114E-1,1.898426469E-1,2.700692483E-1
7.005112583E0,1.573910386E-1,1.008592075E-1,1.812250936E-1,2.603594694E-1
7.015149583E0,1.827822802E-1,6.746400476E-2,1.516235644E-1,2.468814679E-1
7.025185583E0,1.479769483E-1,-5.615081191E-3,9.347877882E-2,1.751199259E-1
7.035222583E0,8.236863054E-2,-6.971869111E-2,3.736019969E-2,1.141975118E-1
7.045259583E0,-2.488370329E-2,-6.697108448E-2,-4.468493365E-2,8.426783574E-2
7.055295583E0,-7.891365699E-2,-5.328392208E-2,-9.974355876E-2,1.378960446E-1
7.065332583E0,-8.777569704E-2,-6.323880672E-2,-1.027461771E-1,1.491995193E-1
7.075369583E0,-8.744291738E-3,-7.009642124E-2,-7.556115590E-2,1.034381902E-1
7.085405583E0,6.625180386E-2,-7.887309194E-3,-6.331189692E-2,9.197775521E-2
7.095442583E0,9.813520901E-2,1.677098393E-2,-8.050914288E-2,1.280371323E-1
7.105479583E0,1.325210763E-1,2.106459439E-2,-3.401208401E-2,1.384282292E-1
7.115515583E0,1.746855676E-1,1.682711720E-2,4.413178705E-2,1.809580450E-1
7.125552583E0,1.576289472E-1,2.538861036E-3,1.106480312E-1,1.926040436E-1
7.135589583E0,1.246382987E-1,2.352159441E-2,1.836300534E-1,2.231769867E-1
7.145625583E0,1.184044359E-1,1.017883301E-1,2.392535195E-1,2.856969044E-1
7.155662583E0,9.779870175E-2,1.747533953E-1,3.057498101E-1,3.654945713E-1
7.165699583E0,8.392881386E-2,1.680992639E-1,3.710868902E-1,4.159409674E-1
7.175736583E0,7.296608850E-2,1.260881889E-1,4.043478262E-1,4.297900023E-1
7.185772583E0,5.779789947E-2,5.280328095E-2,2.850500089E-1,2.956049581E-1
7.195809583E0,3.039002627E-2,-2.123942614E-2,1.190878292E-1,1.247260117E-1
7.205846583E0,-2.860626005E-2,-5.368094802E-2,-3.282860756E-2,6.912076221E-2
7.215882583E0,-4.638625413E-2,-5.794415295E-2,-1.458125284E-1,1.636169394E-1
7.225919583E0,-1.918983087E-3,-7.571734965E-2,-1.934269901E-1,2.077277065E-1
7.235956583E0,6.022295907E-2,-9.392265558E-2,-1.793170740E-1,2.111939466E-1
7.245992583E0,5.332741074E-2,-5.259862840E-2,-6.674881719E-2,1.003286252E-1
7.256029583E0,1.597218119E-2,2.104295969E-2,7.029924653E-2,7.509927288E-2
7.266066583E0,-3.261964269E-2,5.360493422E-2,1.636980647E-1,1.753128245E-1
7.276102583E0,-5.584661052E-2,8.702177167E-2,2.417331775E-1,2.629193066E-1
7.286139583E0,-2.903486095E-2,1.123501557E-1,3.340164200E-1,3.535994195E-1
7.296176583E0,3.677562431E-2,7.485839367E-2,3.767279184E-1,3.858499062E-1
7.306212583E0,8.906705461E-2,2.601484716E-2,2.780713570E-1,2.931439784E-1
7.316249583E0,8.385791637E-2,-2.508864820E-2,4.062828161E-2,9.649998794E-2
7.326286583E0,1.891026087E-2,-8.865489900E-2,-1.583502012E-1,1.824611611E-1
7.336322583E0,-1.071143395E-1,-1.223062098E-1,-2.403813744E-1,2.901990624E-1
7.346359583E0,-1.684975324E-1,-9.280759156E-2,-1.925657684E-1,2.721878811E-1
7.356396583E0,-1.424573229E-1,-2.012494683E-2,-1.063421416E-1,1.789071084E-1
7.366433583E0,-6.026871353E-2,4.373717308E-2,1.558407225E-2,7.607970457E-2
7.376469583E0,5.276410460E-2,8.685454130E-2,1.522959211E-1,1.830896219E-1
7.386506583E0,9.438948266E-2,1.110123128E-1,2.517348399E-1,2.908668727E-1
7.396543583E0,1.047175658E-1,5.865458965E-2,2.490627354E-1,2.764749097E-1
7.406579583E0,9.447645999E-2,2.460274458E-2,1.833376926E-1,2.077108713E-1
7.416616583E0,5.045474678E-2,-2.389289260E-2,1.256788838E-1,1.375199390E-1
7.426653583E0,-1.327566460E-2,-5.423818767E-2,4.815174781E-2,7.373340552E-2
7.436689583E0,-3.408458948E-2,-7.876491845E-2,2.537691593E-4,8.582386624E-2
7.446726583E0,-9.255791545E-2,-5.810787499E-2,4.014639795E-2,1.164269132E-1
7.456763583E0,-1.396278553E-1,8.127629757E-4,1.070994291E-1,1.759741068E-1
7.466799583E0,-1.350989675E-1,8.753164887E-2,1.774196526E-1,2.395647171E-1
7.476836583E0,-2.994461462E-2,1.484672374E-1,2.253352460E-1,2.715053841E-1
7.486873583E0,4.189259581E-2,1.575625813E-1,2.521991088E-1,3.003087530E-1
7.496909583E0,1.004091912E-1,8.871629477E-2,2.707576597E-1,3.020965026E-1
7.506946583E0,1.329174444E-1,4.373775780E-2,2.185998382E-1,2.595494707E-1
7.516983583E0,1.002783597E-1,-1.577344894E-2,1.111233368E-1,1.505089602E-1
7.527019583E0,6.017939731E-2,-4.902422547E-2,-3.765965022E-2,8.627388828E-2
7.537056583E0,-8.530356735E-4,-1.033968991E-1,-1.727706776E-1,2.013488352E-1
7.547093583E0,-4.127498366E-2,-1.301099038E-1,-2.072283194E-1,2.481446911E-1
7.557130583E0,-4.941555038E-2,-1.000020057E-1,-2.105494648E-1,2.382716410E-1
7.567166583E0,-3.916947439E-2,-2.654168129E-2,-1.758544260E-1,1.821084504E-1
7.577203583E0,-2.859186128E-2,4.010605216E-2,-9.294266224E-2,1.051871115E-1
7.587240583E0,-8.845083117E-3,6.037250161E-2,1.080799341E-2,6.196682312E-2
7.597276583E0,3.148623303E-2,4.422658503E-2,9.655397572E-2,1.107702303E-1
7.607313583E0,7.078544252E-2,4.147371590E-2,1.538496725E-1,1.743570179E-1
7.617350583E0,8.643916972E-2,2.876888573E-2,1.766204113E-1,1.987313476E-1
7.627386583E0,9.747622781E-2,3.219652355E-2,1.094873589E-1,1.500856851E-1
7.637423583E0,1.018623704E-1,4.894587278E-2,6.036738530E-3,1.131728023E-1
7.647460583E0,1.316288643E-1,4.606670380E-2,-4.643208168E-2,1.469837995E-1
7.657496583E0,1.187436475E-1,2.010389686E-2,-6.215999544E-2,1.355289103E-1
7.667533583E0,5.614540324E-2,7.875030041E-3,-4.369273424E-2,7.157777189E-2
7.677570583E0,4.736244678E-3,1.208736420E-2,-2.036000490E-2,2.414676348E-2
7.687606583E0,-9.437552243E-3,4.908152819E-2,4.165490650E-2,6.506300821E-2
7.697643583E0,3.525469042E-2,6.449771225E-2,9.466583669E-2,1.198518616E-1
7.707680583E0,7.127595082E-2,5.754069507E-2,1.180978956E-1,1.494600472E-1
7.717717583E0,7.569651894E-2,4.017621875E-2,1.268406525E-1,1.530772441E-1
7.727753583E0,8.386120543E-2,2.215100706E-2,1.273481908E-1,1.540809222E-1
7.737790583E0,7.016300641E-2,2.705974460E-2,6.313640736E-2,9.819003606E-2
7.747827583E0,2.512665510E-2,-9.278946519E-3,-5.905527011E-2,6.484575986E-2
7.757863583E0,-9.875947237E-3,-2.847710967E-2,-1.553453171E-1,1.582423700E-1
7.767900583E0,-3.235483691E-3,-6.334873438E-3,-1.654510599E-1,1.656039016E-1
7.777937583E0,4.208723500E-2,5.330906510E-3,-1.052381142E-1,1.134672402E-1
7.787973583E0,6.097513027E-2,8.604177833E-3,3.244970798E-2,6.960590447E-2
7.798010583E0,1.701832116E-2,2.218199730E-2,8.617334068E-2,9.059530287E-2
7.808047583E0,-3.039090335E-3,3.553762257E-2,6.873687051E-2,7.743975759E-2
7.818083583E0,4.464875400E-2,6.802943051E-2,7.636748694E-2,1.115952853E-1
7.828120583E0,8.830026537E-2,6.791540980E-2,7.935139418E-2,1.367701850E-1
7.838157583E0,8.348442547E-2,1.914612293E-2,3.748533010E-2,9.349531161E-2
7.848193583E0,6.396342292E-2,1.645991206E-3,-4.851442136E-2,8.029743358E-2
7.858230583E0,6.750800505E-2,1.738903463E-2,-1.032456024E-1,1.245767381E-1
7.868267583E0,9.505065657E-2,1.923850894E-2,-1.186499459E-1,1.532401944E-1
7.878304583E0,1.060480998E-1,1.918296039E-2,-5.098823212E-2,1.192224192E-1
7.888340583E0,1.029312415E-1,8.025888205E-3,2.512658201E-2,1.062572373E-1
7.898377583E0,9.940193519E-2,2.204868078E-2,8.799584471E-2,1.345739861E-1
7.908414583E0,7.484436035E-2,4.110768020E-2,1.223483098E-1,1.491999616E-1
7.918450583E0,5.271177202E-2,4.700985968E-2,1.070128173E-1,1.282193467E-1
7.928487583E0,4.781304784E-2,7.330478847E-2,1.058288292E-1,1.373296059E-1
7.938524583E0,4.155762345E-2,6.560517490E-2,1.111965732E-1,1.356309438E-1
7.948560583E0,5.645135880E-2,7.191724420E-2,1.025063682E-1,1.373550197E-1
7.958597583E0,7.225638270E-2,3.849514425E-2,4.826408744E-2,9.503832442E-2
7.968634583E0,1.035481227E-1,6.244826317E-3,-3.672051430E-4,1.037369096E-1
7.978670583E0,9.231182076E-2,-1.805678666E-2,-4.804825209E-2,1.056226980E-1
7.988707583E0,7.057793945E-2,-4.276653528E-2,-1.110900807E-1,1.383879623E-1
7.998744583E0,7.618563853E-2,-3.299993098E-2,-1.377288258E-1,1.608181471E-1
8.008781583E0,6.506920449E-2,-2.530441046E-2,-8.536350131E-2,1.102780210E-1
8.018817583E0,1.084271125E-2,2.480973601E-3,9.606463686E-3,1.469706644E-2
8.028854583E0,8.457924351E-3,5.065033615E-2,8.087861381E-2,9.580367012E-2
8.038891583E0,4.808625899E-2,9.838992834E-2,1.150082269E-1,1.588073000E-1
8.048927583E0,7.217854165E-2,9.308182597E-2,1.533635496E-1,1.933761788E-1
8.058964583E0,9.142333634E-2,9.066166341E-2,2.156955993E-1,2.512018217E-1
8.069001583E0,1.170896894E-1,7.454907596E-2,2.303989347E-1,2.689818381E-1
8.079037583E0,1.316600007E-1,3.477163732E-2,2.156212666E-1,2.550214759E-1
8.089074583E0,5.602823965E-2,-1.814566433E-2,7.513964474E-2,9.546934055E-2
8.099111583E0,9.057337046E-4,-2.609904706E-2,-8.755679190E-2,9.136833379E-2
8.109147583E0,2.031783186E-2,-1.409295917E-2,-1.436825339E-1,1.457947061E-1
8.119184583E0,3.710175276E-2,-2.556695044E-2,-1.023245928E-1,1.118057750E-1
8.129221583E0,1.759873040E-2,-3.823903620E-2,-8.055635914E-3,4.285828358E-2
8.139258583E0,3.438667126E-2,1.360705554E-2,1.970745564E-2,4.190440226E-2
8.149294583E0,2.264765494E-2,7.746566713E-2,8.915425122E-2,1.202594128E-1
8.159331583E0,-9.701480940E-3,9.495702803E-2,1.197404516E-1,1.531297869E-1
8.169368583E0,2.493325844E-2,9.167381644E-2,1.329773784E-1,1.634280856E-1
8.179404583E0,8.450505696E-2,4.151640058E-2,1.404957283E-1,1.691264788E-1
8.189441583E0,1.089631560E-1,3.142059803E-2,1.226336539E-1,1.670306452E-1
8.199479208E0,8.111162536E-2,7.682071924E-3,8.275630094E-2,1.161323183E-1
8.209515208E0,5.000531517E-2,-2.516933978E-2,4.828338325E-2,7.392775060E-2
8.219552208E0,3.154148921E-2,-3.257016063E-2,-2.825776599E-2,5.342454720E-2
8.229589208E0,6.030087322E-2,-3.451611400E-3,-5.761970557E-2,8.347538202E-2
8.239625208E0,8.675206885E-2,3.781218946E-2,-8.846259870E-2,1.295427130E-1
8.249662208E0,9.128219917E-2,7.519168496E-2,-5.015215337E-2,1.284580393E-1
8.259699208E0,4.803370714E-2,8.173062623E-2,4.215784013E-2,1.037517025E-1
8.269736208E0,4.047252640E-2,4.976506770E-2,1.160613104E-1,1.326077491E-1
8.279772208E0,2.973681919E-2,3.754789531E-2,1.443759406E-1,1.521135598E-1
8.289809208E0,3.008392453E-2,3.117326081E-2,1.345783460E-1,1.413794395E-1
8.299846208E0,3.620186627E-2,7.485020757E-3,9.187678792E-2,9.903506861E-2
8.309882208E0,2.255439185E-2,-3.247075796E-2,1.815085374E-2,4.350292180E-2
8.319919208E0,2.772493847E-2,-5.187942088E-2,-5.044984974E-2,7.749408921E-2
8.329956208E0,5.554599054E-2,-5.915745020E-2,-9.552296542E-2,1.253379348E-1
8.339992208E0,1.027628417E-1,-1.613831520E-2,-7.165528893E-2,1.263136068E-1
8.350029208E0,1.075531731E-1,1.924611032E-2,5.868338719E-3,1.094190806E-1
8.360066208E0,5.589930855E-2,3.519322157E-2,8.126284897E-2,1.047231883E-1
8.370102208E0,3.326407894E-3,6.322184980E-2,1.347928657E-1,1.489200589E-1
8.380139208E0,-1.433824986E-2,1.226582122E-1,1.481788965E-1,1.928927365E-1
8.390176208E0,2.065580092E-2,1.284820390E-1,1.691190914E-1,2.133906360E-1
8.400213208E0,4.554980993E-2,8.249719620E-2,1.760146397E-1,1.996540157E-1
8.410249208E0,6.531676099E-2,1.404384255E-2,1.461178992E-1,1.606672003E-1
8.420286208E0,8.578998260E-2,-2.510209680E-2,8.431568027E-2,1.228786813E-1
8.430323208E0,1.120267316E-1,-7.824159265E-3,2.938342810E-2,1.160801099E-1
8.440359208E0,1.123002351E-1,-1.416663408E-2,9.747235402E-3,1.136091762E-1
8.450396208E0,9.984223053E-2,-3.259998143E-2,-4.123683058E-2,1.128348616E-1
8.460433208E0,6.777529590E-2,-1.758900940E-2,-9.106453657E-2,1.148721629E-1
8.470469208E0,6.277007930E-2,-6.975728273E-4,-1.210590718E-1,1.363666687E-1
8.480506208E0,4.647286601E-2,2.492668033E-3,-8.209841609E-2,9.437208588E-2
8.490543208E0,5.012130931E-2,2.603999019E-2,8.618284240E-3,5.713581678E-2
8.500580208E0,7.311088018E-2,5.223551631E-2,8.591189705E-2,1.243165476E-1
8.510616208E0,1.043807662E-1,8.330469668E-2,1.420679715E-1,1.949828848E-1
8.520653208E0,1.160132170E-1,9.593819082E-2,1.649108503E-1,2.232908228E-1
8.530690208E0,7.309531197E-2,3.879627585E-2,1.798054627E-1,1.979345348E-1
8.540726208E0,2.147090279E-2,-3.569959044E-2,1.259764340E-1,1.326858031E-1
8.550763208E0,1.584902421E-2,-1.827313364E-2,1.312868021E-2,2.752201347E-2
8.560800208E0,2.294966362E-2,9.843202829E-3,-8.174992204E-3,2.627558182E-2
8.570836208E0,2.080439329E-2,-1.360530138E-2,1.163654387E-2,2.744696994E-2
8.580873208E0,2.975246049E-2,-6.934213042E-3,-2.048864365E-3,3.061845948E-2
8.590910208E0,4.763785064E-2,1.808953106E-2,-8.863867298E-3,5.172198847E-2
8.600946208E0,7.687955685E-2,6.027134478E-2,4.539485872E-2,1.077209100E-1
8.610983208E0,8.740096360E-2,9.857236147E-2,1.105508944E-1,1.719794730E-1
8.621020208E0,6.272892952E-2,1.036518377E-1,1.587665230E-1,1.997133718E-1
8.631057208E0,6.197383471E-2,6.078765392E-2,1.887288254E-1,2.077365269E-1
8.641093208E0,4.305049069E-2,2.640602589E-2,1.502219137E-1,1.584842147E-1
8.651130208E0,5.970314160E-2,-5.589353442E-3,6.032345809E-2,8.505660224E-2
8.661167208E0,9.976490110E-2,-2.466297090E-2,-2.131017745E-2,1.049543772E-1
8.671203208E0,1.406372309E-1,-4.192395151E-2,-1.099908042E-1,1.833969068E-1
8.681240208E0,1.562968053E-1,-2.938810587E-2,-1.727659998E-1,2.348200221E-1
8.691277208E0,1.170682740E-1,-1.992731094E-3,-1.749656492E-1,2.105277421E-1
8.701313208E0,4.625118345E-2,5.168470860E-2,-4.820503056E-2,8.446422938E-2
8.711350208E0,1.146448955E-2,9.776719987E-2,1.356220740E-1,1.675804489E-1
8.721387208E0,1.023482010E-2,7.924029708E-2,2.764616916E-1,2.877756820E-1
8.731424208E0,8.130502202E-2,8.028285563E-2,3.442168877E-1,3.626859651E-1
8.741460208E0,1.239774902E-1,5.287929475E-2,2.965760404E-1,3.257667657E-1
8.751497208E0,1.093535308E-1,1.948935449E-2,7.470234610E-2,1.338598900E-1
8.761534208E0,7.222056851E-2,-1.061094224E-2,-1.248304528E-1,1.446065163E-1
8.771570208E0,3.945562251E-2,-5.940888047E-2,-2.071544983E-1,2.190870772E-1
8.781607208E0,5.214546919E-3,-4.403128803E-2,-1.891959449E-1,1.943220301E-1
8.791644208E0,3.805981904E-2,-1.249082208E-2,-1.226575544E-1,1.290327327E-1
8.801680208E0,7.903052822E-2,2.835899591E-3,-3.005593099E-2,8.460038832E-2
8.811717208E0,1.173260631E-1,2.337541401E-2,3.320275627E-2,1.241540901E-1
8.821754208E0,1.210342211E-1,5.079242349E-2,8.829587996E-2,1.581939170E-1
8.831790208E0,9.836500458E-2,9.514764726E-2,1.800485607E-1,2.261553296E-1
8.841827208E0,5.841609634E-2,1.221307933E-1,2.436422934E-1,2.787291484E-1
8.851864208E0,5.080002487E-2,1.066923898E-1,2.728848036E-1,2.973718625E-1
8.861901208E0,3.187499978E-2,2.505882740E-2,2.067803496E-1,2.107179950E-1
8.871937208E0,1.050503455E-2,-5.717582881E-2,1.029840126E-1,1.182587756E-1
8.881974208E0,-1.680862539E-2,-1.052492970E-1,-1.980978191E-2,1.084083570E-1
8.892011208E0,-6.327418238E-4,-8.035243750E-2,-1.641746128E-1,1.827846220E-1
8.902047208E0,-1.578602046E-3,-8.301350534E-2,-2.457519688E-1,2.593988517E-1
8.912084208E0,1.031163789E-2,-7.342114806E-2,-2.782379296E-1,2.879467664E-1
8.922121208E0,1.494087853E-2,-1.249900818E-2,-2.416081202E-1,2.423921179E-1
8.932157208E0,2.600286037E-2,2.810581148E-2,-1.025608204E-1,1.094751445E-1
8.942194208E0,5.256632254E-2,4.816760838E-2,5.712086499E-2,9.135715614E-2
8.952231208E0,9.162331112E-2,8.269073904E-2,1.641494697E-1,2.053719501E-1
8.962268208E0,1.336619411E-1,1.258104461E-1,2.196149880E-1,2.862246073E-1
8.972304208E0,1.515677235E-1,1.557715791E-1,2.429050326E-1,3.259454165E-1
8.982341208E0,1.362844174E-1,1.416172242E-1,2.378525267E-1,3.085493560E-1
8.992378208E0,1.130054093E-1,6.511283934E-2,1.972312617E-1,2.364531137E-1
9.002414208E0,7.410856135E-2,5.778218508E-3,1.565966944E-1,1.733435645E-1
9.012451208E0,1.316573694E-2,-3.174628794E-2,1.012549909E-1,1.069286520E-1
9.022488208E0,-8.575804219E-2,-9.995990574E-2,1.423614286E-2,1.324729871E-1
9.032524208E0,-1.226650827E-1,-1.005972522E-1,-1.005066935E-1,1.877980966E-1
9.042561208E0,-1.101173233E-1,-8.761760294E-2,-1.853520584E-1,2.327188321E-1
9.052598208E0,-1.183644556E-1,-6.351771891E-2,-1.738435686E-1,2.196957698E-1
9.062635208E0,-1.564747799E-1,-9.823322296E-2,-5.845103346E-2,1.937798910E-1
9.072671208E0,-2.388588325E-1,-1.454337019E-1,4.864181757E-2,2.838494846E-1
9.082708208E0,-3.325226026E-1,-1.358629793E-1,1.145960712E-1,3.770441485E-1
9.092745208E0,-4.214887927E-1,-1.337369317E-1,6.522210918E-2,4.469813115E-1
9.102781208E0,-4.823680287E-1,-1.635629940E-1,-7.278489791E-2,5.145186192E-1
9.112818208E0,-4.618658634E-1,-2.533849972E-1,-2.820884673E-1,5.975767197E-1
9.122855208E0,-4.275298436E-1,-3.424573874E-1,-4.888143647E-1,7.341650445E-1
9.132891208E0,-4.358658535E-1,-3.899759549E-1,-6.365256301E-1,8.644218678E-1
9.142928208E0,-4.737096179E-1,-3.977574295E-1,-7.279560562E-1,9.552653006E-1
9.152965208E0,-4.468638814E-1,-4.012107950E-1,-8.194252932E-1,1.015930727E0
9.163002208E0,-3.751635689E-1,-3.403886425E-1,-8.776904583E-1,1.013386734E0
9.173038208E0,-3.200145312E-1,-1.862104297E-1,-8.678560994E-1,9.435347548E-1
9.183075208E0,-2.502077664E-1,-4.525744915E-3,-7.739649457E-1,8.134163423E-1
9.193112458E0,-1.640898281E-1,1.234072405E-1,-5.630337308E-1,5.993010935E-1
9.203148458E0,-1.699551702E-1,2.257808769E-1,-2.363486228E-1,3.684052602E-1
9.213185458E0,-2.128056130E-1,2.815598059E-1,9.968037229E-2,3.667401394E-1
9.223222458E0,-3.197161771E-1,3.081061649E-1,3.467796127E-1,5.633861398E-1
9.233258458E0,-4.155236826E-1,3.151409501E-1,4.509601483E-1,6.894481885E-1
9.243295458E0,-4.448240802E-1,3.327796608E-1,4.970975304E-1,7.454640969E-1
9.253332458E0,-4.346564300E-1,3.283620894E-1,5.566812060E-1,7.788721584E-1
9.263369458E0,-4.347096397E-1,2.894406831E-1,5.438284413E-1,7.539879001E-1
9.273405458E0,-4.329524783E-1,1.748516285E-1,4.505928336E-1,6.488873879E-1
9.283442458E0,-4.172164515E-1,5.274071574E-2,2.218486243E-1,4.754660479E-1
9.293479458E0,-4.205907335E-1,-3.082593620E-2,-3.343558509E-2,4.230422459E-1
9.303515458E0,-4.571472334E-1,-6.301778197E-2,-3.072910631E-1,5.544209874E-1
9.313552458E0,-5.173008299E-1,-4.691455007E-2,-6.036933681E-1,7.963961365E-1
9.323589458E0,-5.872390839E-1,-3.386707306E-2,-8.651270577E-1,1.046155603E0
9.333625458E0,-6.643819848E-1,-4.205200553E-2,-9.574494034E-1,1.166139423E0
9.343662458E0,-6.976147080E-1,-5.709104419E-2,-8.998444621E-1,1.140020054E0
9.353699458E0,-7.065708882E-1,-3.890152574E-2,-7.751875985E-1,1.049605431E0
9.363736458E0,-6.808636046E-1,6.032280028E-2,-6.336995246E-1,9.320886094E-1
9.373772458E0,-6.454199760E-1,1.190849787E-1,-5.083562710E-1,8.301652100E-1
9.383809458E0,-5.866750469E-1,1.685763967E-1,-3.892356243E-1,7.239544070E-1
9.393846458E0,-5.158148331E-1,1.757819206E-1,-2.923520118E-1,6.184124226E-1
9.403882458E0,-4.489898559E-1,1.876593697E-1,-2.234888414E-1,5.354952773E-1
9.413919458E0,-4.186248996E-1,1.238030970E-1,-2.407562540E-1,4.985354423E-1
9.423956458E0,-3.654091707E-1,4.196488202E-2,-3.405232747E-1,5.012394776E-1
9.433992458E0,-3.473540651E-1,-5.075967908E-2,-5.328807360E-1,6.381169723E-1
9.444029458E0,-3.528974448E-1,-1.573953509E-2,-7.614121431E-1,8.393645163E-1
9.454066458E0,-3.106344279E-1,6.556775272E-2,-8.650336484E-1,9.214532494E-1
9.464103458E0,-3.022477665E-1,9.888752639E-2,-7.223270148E-1,7.892330274E-1
9.474139458E0,-3.498841553E-1,3.131593287E-2,-3.826061243E-1,5.194102965E-1
9.484176458E0,-3.642076410E-1,-1.323458791E-2,-1.904438138E-2,3.649452678E-1
9.494213458E0,-3.708959055E-1,-9.333910346E-3,2.440031397E-1,4.440590353E-1
9.504249458E0,-2.740906457E-1,4.748523831E-2,3.570169544E-1,4.525943390E-1
9.514286458E0,-1.252953795E-1,1.704340571E-1,3.170868304E-1,3.811702480E-1
9.524323458E0,7.143886887E-2,2.637807620E-1,1.962447634E-1,3.364458493E-1
9.534359458E0,2.755425824E-1,3.328691232E-1,5.380132757E-2,4.354539594E-1
9.544396458E0,4.521662097E-1,3.508446336E-1,3.377461396E-2,5.733122732E-1
9.554433458E0,6.085568628E-1,3.446980405E-1,1.247339007E-1,7.104341914E-1
9.564470458E0,7.993001271E-1,1.677648032E-1,3.063286114E-1,8.722745786E-1
9.574506458E0,1.064688727E0,-1.960805297E-2,4.452822827E-1,1.154219595E0
9.584543458E0,1.325043094E0,-1.309349459E-1,5.079259890E-1,1.425086654E0
9.594580458E0,1.635679057E0,-2.050817335E-1,4.749869422E-1,1.715551541E0
9.604616458E0,1.943240261E0,-1.276979274E-1,3.695236371E-1,1.982179909E0
9.614653458E0,2.218136726E0,8.991497397E-2,2.858417219E-1,2.238285221E0
9.624690458E0,2.424835361E0,3.342519897E-1,3.040563103E-1,2.466576810E0
9.634726458E0,2.597759455E0,5.493476647E-1,3.715589797E-1,2.681080588E0
9.644763458E0,2.601060208E0,6.153697461E-1,4.166275638E-1,2.705138196E0
9.654800458E0,2.463768169E0,6.643086022E-1,4.114218608E-1,2.584710324E0
9.664837458E0,2.290181440E0,6.987890482E-1,2.951626953E-1,2.412541850E0
9.674873458E0,1.945245271E0,6.840669286E-1,4.173274755E-2,2.062442327E0
9.684910458E0,1.369641269E0,4.643040061E-1,-2.899266598E-1,1.474975554E0
9.694947458E0,7.012546729E-1,1.603786004E-1,-6.072287408E-1,9.413852322E-1
9.704983458E0,2.758277804E-2,-2.176801443E-2,-8.240096565E-1,8.247584919E-1
9.715020458E0,-3.564569373E-1,2.146045089E-2,-1.024961355E0,1.085388354E0
9.725057458E0,-5.588729252E-1,1.385912901E-1,-1.165748860E0,1.300198791E0
9.735094458E0,-6.246412374E-1,1.239305663E-1,-1.151036680E0,1.315454636E0
9.745130458E0,-5.155959280E-1,-1.617924571E-3,-1.123403982E0,1.236073738E0
9.755167458E0,-1.845325711E-1,-1.180435896E-1,-1.071946218E0,1.094100203E0
9.765204458E0,3.102892229E-1,-8.984890044E-2,-9.144665211E-1,9.698459904E-1
9.775240458E0,7.429635930E-1,5.400020599E-2,-7.561252369E-1,1.061431249E0
9.785277458E0,1.009921147E0,1.599406439E-1,-7.078270894E-1,1.243599985E0
9.795314458E0,1.101023983E0,1.382971752E-1,-7.335589314E-1,1.330221269E0
9.805350458E0,1.111444014E0,6.485731602E-2,-7.627184111E-1,1.349538307E0
9.815387458E0,1.023236134E0,-4.484814405E-3,-7.782455461E-1,1.285573191E0
9.825424458E0,6.350729625E-1,-1.262022096E-1,-8.391918057E-1,1.059946957E0
9.835461458E0,1.925901805E-1,-2.150781333E-1,-1.069576926E0,1.107855759E0
9.845497458E0,-1.845214614E-1,-2.142185926E-1,-1.316149186E0,1.346174750E0
9.855534458E0,-3.295772870E-1,-1.570439333E-1,-1.467366954E0,1.512101109E0
9.865571458E0,-3.185802823E-1,-9.747425437E-2,-1.508864205E0,1.545207370E0
9.875607458E0,-2.277560663E-1,-1.719736290E-1,-1.426676911E0,1.454941498E0
9.885644458E0,-6.201220706E-2,-3.170687771E-1,-1.246572144E0,1.287757832E0
9.895681458E0,1.257854493E-1,-3.743013239E-1,-1.079185071E0,1.149157900E0
9.905717458E0,2.378607859E-1,-3.303863955E-1,-9.840934110E-1,1.064975476E0
9.915754458E0,3.053312957E-1,-2.268357146E-1,-9.861418368E-1,1.056956652E0
9.925791458E0,4.367615739E-1,-2.030048025E-1,-1.141640936E0,1.239078548E0
9.935828458E0,6.968363705E-1,-3.530940574E-1,-1.419881277E0,1.620592232E0
9.945864458E0,1.077775819E0,-5.686750513E-1,-1.587026860E0,2.000911364E0
9.955901458E0,1.406021768E0,-6.602190596E-1,-1.704186789E0,2.305870558E0
9.965938458E0,1.584841902E0,-7.636563045E-1,-1.753552638E0,2.483916597E0
9.975974458E0,1.725127130E0,-8.085880637E-1,-1.684333153E0,2.543001464E0
9.986011458E0,1.962163167E0,-7.012191510E-1,-1.426657323E0,2.525300716E0
9.996048458E0,2.076224364E0,-6.082712263E-1,-1.225130843E0,2.486291832E0
1.000608546E1,2.235479714E0,-5.310189825E-1,-1.168193727E0,2.577601074E0
1.001612146E1,2.538214627E0,-3.868956417E-1,-1.191335837E0,2.830459822E0
1.002615846E1,2.917983974E0,-2.334161711E-1,-1.185028445E0,3.158069980E0
1.003619546E1,3.100509489E0,-2.123609322E-1,-1.260463374E0,3.353658327E0
1.004623146E1,3.087994693E0,-2.582756084E-1,-1.555682130E0,3.467356977E0
1.005626846E1,3.402901170E0,-2.649952286E-1,-1.702881837E0,3.814415472E0
1.006630546E1,3.554497837E0,-5.578600413E-1,-2.034359177E0,4.133313436E0
1.007634246E1,3.611485385E0,-9.527581823E-1,-2.334955178E0,4.404837173E0
1.008637846E1,3.802192031E0,-1.193201537E0,-2.430536104E0,4.667751054E0
1.009641546E1,3.822690031E0,-1.519127676E0,-2.843285794E0,5.000498183E0
1.010645246E1,3.974055440E0,-1.839375585E0,-3.163129660E0,5.402018922E0
1.011648846E1,4.650893456E0,-1.994306919E0,-3.066454720E0,5.917027512E0
1.012652546E1,4.862444549E0,-2.110279425E0,-2.938435196E0,6.060614461E0
1.013656246E1,4.712068781E0,-1.761048623E0,-2.397178323E0,5.572373674E0
1.014659846E1,4.099320926E0,-1.446402347E0,-2.013082328E0,4.790512735E0
1.015663546E1,3.287223364E0,-1.027534715E0,-1.649191387E0,3.818572674E0
1.016667246E1,2.522557830E0,-5.009929454E-1,-1.237211190E0,2.853941742E0
1.017670946E1,1.490783445E0,-1.541144782E-1,-9.825532544E-1,1.792093036E0
1.018674546E1,6.872206244E-1,-1.658276206E-1,-9.115376508E-1,1.153547518E0
1.019678221E1,-3.847921059E-2,-3.374743903E-1,-6.376564085E-1,7.224785873E-1
1.020681921E1,-6.124717198E-1,-9.059898126E-1,3.470696712E-1,1.147343238E0
1.021685521E1,-1.418329865E0,-1.418931543E0,2.465819957E0,3.178882570E0
1.022689221E1,-2.543347605E0,-1.564644742E0,5.198222662E0,5.994851879E0
1.023692921E1,-3.398787653E0,-1.668320553E0,7.318322486E0,8.239714497E0
1.024696621E1,-3.745207114E0,-1.992641047E0,8.212739489E0,9.243715951E0
1.025700221E1,-3.317125440E0,-2.594989629E0,7.839549136E0,8.899203504E0
1.026703921E1,-2.386424270E0,-3.143129843E0,6.394979306E0,7.514655437E0
1.027707621E1,-1.360636411E0,-3.185040346E0,4.241504745E0,5.475963473E0
1.028711221E1,-6.218645409E-1,-2.637940936E0,3.533916807E-1,2.733191096E0
1.029714921E1,-2.025763477E-1,-2.032426672E0,-2.689229496E0,3.376943979E0
1.030718621E1,-1.013521863E0,-1.419458377E0,-1.165934801E0,2.097973453E0
1.031722221E1,-1.433469476E0,-8.430597389E-1,1.412744604E0,2.182070525E0
1.032725921E1,-1.209918142E0,-5.781376004E-2,3.514460489E0,3.717348097E0
1.033729621E1,-2.460711537E-1,5.599931055E-1,4.982963265E0,5.020365145E0
1.034733321E1,7.899877784E-1,6.650605541E-1,5.591681803E0,5.686237035E0
1.035736921E1,1.542444911E0,4.287400711E-1,5.124371159E0,5.368624975E0
1.036740621E1,1.283782509E0,-3.506633699E-2,4.004940726E0,4.205814713E0
1.037744321E1,-5.831492490E-1,-6.702780247E-1,2.939402618E0,3.070736626E0
1.038747921E1,-2.880626698E0,-1.154248556E0,2.067223452E0,3.728768256E0
1.039751621E1,-3.736233100E0,-1.077150679E0,1.015232173E0,4.018754500E0
1.040755321E1,-3.821206592E0,-8.226149493E-1,1.256902859E-1,3.910768879E0
1.041759021E1,-4.003569554E0,-3.913184756E-1,-1.820121288E-1,4.026763929E0
1.042762621E1,-4.101901010E0,2.273467612E-1,4.879638872E-1,4.137074715E0
1.043766321E1,-4.130831571E0,1.027127164E0,1.445887500E0,4.495481102E0
1.044770021E1,-4.081430200E0,1.627555520E0,1.990849460E0,4.823949733E0
1.045773621E1,-3.988733998E0,1.604749625E0,1.955986314E0,4.723463002E0
1.046777321E1,-3.689483149E0,1.344317563E0,1.441662886E0,4.183045242E0
1.047781021E1,-3.272166198E0,1.033053902E0,8.293091342E-1,3.530159435E0
1.048784721E1,-2.767319938E0,6.625848430E-1,5.843704399E-1,2.904921191E0
1.049788321E1,-2.151527731E0,1.729717487E-1,7.358913857E-1,2.280466385E0
1.050792021E1,-1.696003757E0,-4.677363217E-1,8.895567977E-1,1.971425197E0
1.051795721E1,-8.422396669E-1,-6.534006214E-1,8.489762440E-1,1.362740141E0
1.052799321E1,-2.392797589E-2,-6.395240092E-1,6.646854553E-1,9.226972748E-1
1.053803021E1,3.974460652E-1,-5.487062252E-1,4.792582601E-1,8.298978107E-1
1.054806721E1,5.751686767E-1,-1.591009837E-1,3.545754495E-1,6.941583962E-1
1.055810321E1,6.668316758E-1,2.684942025E-1,3.966411960E-1,8.210224473E-1
1.056814021E1,7.726958075E-1,4.755230588E-1,4.907860458E-1,1.031528930E0
1.057817721E1,1.016849513E0,4.805779767E-1,1.077073203E0,1.557249116E0
1.058821421E1,1.616829095E0,4.460706335E-1,1.655727990E0,2.356809392E0
1.059825021E1,1.985870849E0,5.284842145E-1,2.181421913E0,2.996928453E0
1.060828721E1,1.880233004E0,3.784072387E-1,2.985674266E0,3.548622129E0
1.061832421E1,1.176566793E0,2.261831653E-1,3.749722627E0,3.936481680E0
1.062836021E1,8.049335539E-2,3.825172466E-1,3.806973007E0,3.826988647E0
1.063839721E1,-1.051995372E0,7.120698291E-1,2.401797916E0,2.717051883E0
1.064843421E1,-2.084872688E0,8.607750481E-1,2.654387400E-1,2.271141901E0
1.065847121E1,-2.601033603E0,7.057793945E-1,-1.581621256E0,3.124904183E0
1.066850721E1,-2.794135269E0,2.990242696E-1,-1.913938402E0,3.399965826E0
1.067854421E1,-2.889545456E0,-2.391043425E-2,-6.490792367E-1,2.961646250E0
1.068858121E1,-3.218750129E0,-3.513597733E-1,6.440368903E-1,3.301301198E0
1.069861721E1,-3.625404975E0,-8.104837310E-1,1.034121019E0,3.856144628E0
1.070865421E1,-3.773238081E0,-1.314857537E0,4.795535445E-1,4.024443758E0
1.071869121E1,-3.627037809E0,-1.869125049E0,-3.901683283E-1,4.098934379E0
1.072872821E1,-3.288974897E0,-2.537408003E0,-1.172388373E0,4.316281935E0
1.073876421E1,-2.815137298E0,-3.111142650E0,-2.016057976E0,4.654964700E0
1.074880121E1,-2.383943443E0,-3.463247944E0,-2.811056526E0,5.057599376E0
1.075883821E1,-1.551168956E0,-3.010079375E0,-2.830062316E0,4.413157111E0
1.076887421E1,-9.478541225E-2,-1.543007120E0,-2.000250029E0,2.528014127E0
1.077891121E1,1.527603508E0,-7.959218252E-1,-1.072988046E0,2.029376105E0
1.078894821E1,3.251845955E0,-8.910063225E-1,2.710856885E-2,3.371813941E0
1.079898521E1,4.621266199E0,-1.013244705E0,1.894215743E0,5.096157317E0
1.080902121E1,4.992322319E0,-8.595880634E-1,3.383117115E0,6.091605305E0
1.081905821E1,3.963398305E0,-8.988965553E-1,3.012845985E0,5.059029756E0
1.082909521E1,2.558378165E0,-1.214615795E0,1.215738460E0,3.081981565E0
1.083913121E1,2.101102512E0,-1.670705048E0,-9.293552864E-1,2.840702091E0
1.084916821E1,2.330437619E0,-2.194396884E0,-2.345053319E0,3.968071604E0
1.085920521E1,2.505627509E0,-2.516432287E0,-2.297576559E0,4.229593209E0
1.086924121E1,2.137716607E0,-2.334534763E0,-1.186465837E0,3.380471274E0
1.087927821E1,1.341140479E0,-1.673436867E0,-2.483248168E-1,2.158868673E0
1.088931521E1,6.232664108E-1,-6.319325691E-1,2.358512440E-1,9.183820556E-1
1.089935221E1,-1.318158290E-1,4.631024033E-1,4.580238041E-1,6.645487596E-1
1.090938821E1,-7.285434821E-1,1.317078309E0,7.117090559E-1,1.664932629E0
1.091942521E1,-8.945702004E-1,1.789595899E0,1.183902710E0,2.324765569E0
1.092946221E1,-7.406983817E-1,1.725149642E0,1.723950378E0,2.548878241E0
1.093949821E1,-5.009780350E-1,1.148477939E0,2.195301449E0,2.527712210E0
1.094953521E1,-4.298969427E-1,2.909521884E-1,2.846866629E0,2.893806172E0
1.095957221E1,-6.568025315E-1,-5.491932982E-1,3.482348458E0,3.586049864E0
1.096960921E1,-1.072070325E0,-1.230048936E0,3.726027077E0,4.067632352E0
1.097964521E1,-1.481164629E0,-1.485504432E0,3.267635776E0,3.883042060E0
1.098968221E1,-1.434296272E0,-1.198810771E0,2.343139526E0,2.997441559E0
1.099971921E1,-9.536098292E-1,-4.772707915E-1,1.362843297E0,1.730462645E0
1.100975521E1,-1.492218205E-1,3.168436593E-1,6.626842457E-1,7.495381682E-1
1.101979221E1,9.135406145E-1,9.511092675E-1,4.772760540E-1,1.402482700E0
1.102982921E1,1.999711500E0,1.286065262E0,9.455696154E-1,2.558693385E0
1.103986621E1,2.655030301E0,1.707517948E0,1.183374122E0,3.371227930E0
1.104990221E1,2.713598059E0,2.322605858E0,8.247714025E-1,3.665836912E0
1.105993921E1,2.130859285E0,2.749120479E0,2.516670853E-1,3.487342975E0
1.106997621E1,1.061282505E0,2.881611954E0,-2.368824005E-1,3.079954753E0
1.108001221E1,-1.104036176E-1,2.695666988E0,-6.962887788E-1,2.786328683E0
1.109004921E1,-7.670245931E-1,2.475799400E0,-1.028603001E0,2.788536091E0
1.110008621E1,-1.100756473E0,2.372199018E0,-1.437037446E0,2.983968769E0
1.111012321E1,-1.373879916E0,2.216463692E0,-1.920014536E0,3.238319493E0
1.112015921E1,-1.541588001E0,2.023191580E0,-2.336412304E0,3.453783460E0
1.113019621E1,-1.728329650E0,1.795748339E0,-2.279576783E0,3.377618360E0
1.114023321E1,-1.839368276E0,1.521419785E0,-1.492042204E0,2.814992674E0
1.115026921E1,-1.711589657E0,1.373702745E0,-4.713463926E-1,2.244719539E0
1.116030621E1,-1.432271381E0,1.010240990E0,4.148248672E-1,1.801129600E0
1.117034321E1,-1.338515371E0,4.476271623E-1,8.286405051E-1,1.636654686E0
1.118038021E1,-1.425168476E0,-6.535900712E-2,7.070991111E-1,1.592283309E0
1.119041621E1,-1.360057391E0,-6.048523593E-1,3.915780920E-1,1.539134784E0
1.120045346E1,-1.137909681E0,-1.304864645E0,-2.957445663E-1,1.756409700E0
1.121049046E1,-7.851217255E-1,-2.099521717E0,-1.402183948E0,2.643960550E0
1.122052646E1,-3.010345423E-1,-2.711164448E0,-2.456835126E0,3.671113359E0
1.123056346E1,3.457169178E-1,-3.192697860E0,-3.111189428E0,4.471279400E0
1.124060046E1,1.131099429E0,-3.491447310E0,-3.242305053E0,4.897155531E0
1.125063746E1,1.197892758E0,-3.554834636E0,-3.067905414E0,4.846012792E0
1.126067346E1,2.101521465E-1,-3.134026313E0,-2.724920608E0,4.158302199E0
1.127071046E1,-8.402992684E-1,-2.315274619E0,-1.864088257E0,3.088919626E0
1.128074746E1,-1.682584251E0,-1.816793638E0,-8.430480444E-1,2.615828528E0
1.129078346E1,-2.106305657E0,-1.646122184E0,-6.351479530E-1,2.747663496E0
1.130082046E1,-2.138173567E0,-1.696954953E0,-8.758374757E-1,2.866798493E0
1.131085746E1,-1.929979068E0,-1.937470229E0,-9.332109404E-1,2.889548884E0
1.132089446E1,-1.755824136E0,-2.175713276E0,-8.970377254E-1,2.936209008E0
1.133093046E1,-1.707579636E0,-2.275336382E0,-5.987870425E-1,2.907151491E0
1.134096746E1,-1.612554488E0,-2.059889874E0,1.027858651E-1,2.618022767E0
1.135100446E1,-1.456967243E0,-1.666120831E0,8.631876093E-1,2.375669383E0
1.136104046E1,-1.270299999E0,-1.179115010E0,1.456206374E0,2.263738345E0
1.137107746E1,-1.113405755E0,-7.435401285E-1,1.836373039E0,2.272617486E0
1.138111446E1,-9.865461718E-1,-3.547137362E-1,1.919255567E0,2.186924122E0
1.139115146E1,-6.466321769E-1,4.800388634E-2,1.968328909E0,2.072379367E0
1.140118746E1,-3.413287286E-1,4.024948436E-1,2.171227292E0,2.234442963E0
1.141122446E1,-3.860346392E-2,8.385872036E-1,2.522898722E0,2.658897645E0
1.142126146E1,5.170239642E-2,1.303029789E0,2.802104439E0,3.090687473E0
1.143129746E1,1.063781020E-1,1.783889017E0,2.818148029E0,3.336994852E0
1.144133446E1,1.842394795E-1,2.120481062E0,2.756876811E0,3.482923179E0
1.145137146E1,8.801579833E-2,2.220481898E0,2.929956148E0,3.677353623E0
1.146140846E1,-2.335787237E-2,2.166668218E0,2.848835387E0,3.579226148E0
1.147144446E1,-2.225630079E-1,1.959076275E0,2.482024931E0,3.169852031E0
1.148148146E1,-4.239874542E-1,1.681110168E0,2.095362593E0,2.719639894E0
1.149151846E1,-4.341291574E-1,1.480689835E0,1.699710746E0,2.295632186E0
1.150155446E1,-1.906294629E-2,1.401225590E0,1.293894099E0,1.907343306E0
1.151159146E1,8.934326246E-1,1.478750314E0,9.780368650E-1,1.985316210E0
1.152162846E1,1.908788028E0,1.597721856E0,6.342112291E-1,2.568737189E0
1.153166546E1,2.493645687E0,1.621815893E0,4.229805636E-1,3.004574539E0
1.154170146E1,2.922841256E0,1.626787196E0,1.873968297E-1,3.350306726E0
1.155173846E1,3.271168079E0,1.613913966E0,-8.772986948E-2,3.648692289E0
1.156177546E1,3.386514348E0,1.556227675E0,-2.783075845E-1,3.737349210E0
1.157181146E1,3.350401359E0,1.508133742E0,-2.325057596E-1,3.681537122E0
1.158184846E1,3.347956054E0,1.444185668E0,5.864172578E-3,3.646164611E0
1.159188546E1,3.243463386E0,1.341326712E0,2.420916849E-1,3.518212681E0
1.160192246E1,2.912730251E0,1.122146757E0,1.797831702E-1,3.126584854E0
1.161195846E1,2.477786284E0,7.328900099E-1,-7.715330887E-1,2.696630480E0
1.162199546E1,2.160676576E0,2.672200942E-1,-2.167129564E0,3.071869202E0
1.163203246E1,2.044727752E0,-2.689368367E-2,-2.973996207E0,3.609194964E0
1.164206846E1,1.891655686E0,-2.277724385E-1,-2.943935087E0,3.506707190E0
1.165210546E1,1.520713734E0,-4.313964611E-1,-2.413320732E0,2.884924630E0
1.166214246E1,9.768361393E-1,-4.279390025E-1,-1.626963782E0,1.945341045E0
1.167217946E1,3.356847037E-1,-3.381883353E-1,-1.065931626E0,1.167589740E0
1.168221546E1,-1.135274926E-1,-1.626221770E-1,-8.457079428E-1,8.686520527E-1
1.169225246E1,-6.180455782E-1,1.402747035E-1,-3.219821924E-1,7.108655719E-1
1.170228946E1,-1.578805383E0,5.253501070E-1,3.836375731E-1,1.707570484E0
1.171232546E1,-2.279629262E0,1.069633498E0,6.086951494E-1,2.590624476E0
1.172236246E1,-2.711698884E0,1.387642508E0,1.439672202E-1,3.049522770E0
1.173239946E1,-2.630976318E0,1.435566287E0,-7.448978519E-1,3.088326368E0
1.174243646E1,-2.283894806E0,1.391912729E0,-1.708603776E0,3.173786917E0
1.175247246E1,-1.753952149E0,1.302391273E0,-2.299999353E0,3.172155134E0
1.176250946E1,-1.377175553E0,1.084505306E0,-2.278328403E0,2.874638164E0
1.177254646E1,-1.390106817E0,7.931040519E-1,-1.643959883E0,2.294344154E0
1.178258246E1,-1.030627307E0,7.077154076E-1,-1.069675013E0,1.645374845E0
1.179261946E1,-7.545292394E-1,7.238782811E-1,-9.033573961E-1,1.381799090E0
1.180265646E1,-8.053497295E-1,8.134038305E-1,-1.156130190E0,1.626914563E0
1.181269346E1,-8.122547796E-1,1.029159656E0,-1.628161876E0,2.090415872E0
1.182272946E1,-4.517251103E-1,1.070888311E0,-1.857483827E0,2.191142058E0
1.183276646E1,3.025093563E-1,7.108933693E-1,-1.208290862E0,1.434171573E0
1.184280346E1,1.469887981E0,5.028681475E-1,-4.949556953E-1,1.630468703E0
1.185283946E1,2.336287905E0,6.700920832E-1,-2.046659964E-1,2.439088507E0
1.186287646E1,2.819987563E0,7.759144074E-1,5.513392264E-1,2.976297695E0
1.187291346E1,2.956801592E0,7.661285073E-1,1.880440580E0,3.586876820E0
1.188295046E1,2.598726000E0,8.508833134E-1,2.673470957E0,3.824241911E0
1.189298646E1,1.853486378E0,8.600839072E-1,2.661163153E0,3.355137167E0
1.190302346E1,-8.985701345E-2,-1.005335176E-1,3.551684741E0,3.554243347E0
1.191306046E1,-8.776878271E-1,-3.283059561E-1,2.268378780E0,2.454315182E0
1.192309646E1,-1.112850854E0,2.844389749E-1,-7.587124836E-1,1.376585336E0
1.193313346E1,-1.282616282E0,7.959598321E-1,-3.008313516E0,3.365799577E0
1.194317046E1,-1.416092135E0,1.318061226E0,-2.492205518E0,3.154947016E0
1.195320746E1,-9.440922432E-1,1.791195112E0,-7.628932428E-1,2.163722763E0
1.196324346E1,6.069592938E-1,1.583525986E0,-2.902388281E-1,1.720521058E0
1.197328046E1,1.662305815E0,8.209122401E-1,5.835433513E-1,1.943625574E0
1.198331746E1,1.670606230E0,2.023124921E-1,1.624916672E0,2.339275467E0
1.199335446E1,1.048850959E0,1.290223217E-1,7.216341197E-1,1.279644832E0
1.200339046E1,3.710645977E-1,5.331760204E-1,-3.686657774E-1,7.469136897E-1
1.201342746E1,-5.269316326E-1,1.004608952E0,4.925168216E-2,1.135483078E0
1.202346446E1,-1.543005951E0,1.407212554E0,5.153449363E-1,2.150975346E0
1.203350046E1,-2.193651364E0,1.804983432E0,7.420116663E-1,2.936094823E0
1.204353746E1,-2.375794909E0,2.179193539E0,1.187121018E0,3.435482825E0
1.205357446E1,-2.270643699E0,2.437987211E0,1.808725065E0,3.790922158E0
1.206361146E1,-2.090499902E0,2.639261237E0,1.879426673E0,3.855921983E0
1.207364746E1,-1.834761547E0,2.833660108E0,1.648300856E0,3.756710696E0
1.208368446E1,-1.704019851E0,2.941731271E0,1.877590647E0,3.883659764E0
1.209372146E1,-1.679354834E0,3.042854188E0,2.543728843E0,4.306942152E0
1.210375746E1,-1.616974837E0,3.113643504E0,3.077361531E0,4.666855203E0
1.211379446E1,-1.568793634E0,3.062057029E0,3.121763533E0,4.645719995E0
1.212383146E1,-1.574653860E0,2.831339933E0,2.578797519E0,4.140799106E0
1.213386846E1,-1.448149057E0,2.451546904E0,1.727076885E0,3.330167034E0
1.214390446E1,-1.202357838E0,2.060658199E0,7.891899258E-1,2.512926048E0
1.215394146E1,-9.081877810E-1,1.610392188E0,-1.653294379E-1,1.856206311E0
1.216397846E1,-5.387947926E-1,1.100243087E0,-1.093349805E0,1.642025723E0
1.217401446E1,-2.198648833E-1,6.539221931E-1,-1.756197188E0,1.886844817E0
1.218405146E1,-1.162322684E-1,2.244740242E-1,-2.128471574E0,2.143429442E0
1.219408846E1,-3.811148924E-3,1.485485137E-2,-2.489026094E0,2.489073340E0
1.220412546E1,-2.196282264E-2,1.901713336E-1,-2.764874048E0,2.771493460E0
1.221416146E1,-4.795657871E-1,2.628849685E-1,-3.281380241E0,3.326642171E0
1.222419846E1,-1.516428017E0,-1.713386214E-1,-3.093717071E0,3.449637106E0
1.223423546E1,-2.460783166E0,-8.792159969E-1,-2.678263628E0,3.741867263E0
1.224427146E1,-3.381960536E0,-1.598185540E0,-2.378862505E0,4.432926901E0
1.225430846E1,-4.294320890E0,-2.730043938E0,-1.710876296E0,5.368559352E0
1.226434546E1,-5.228745128E0,-4.372338535E0,-6.869227087E-1,6.850473172E0
1.227438246E1,-6.008884149E0,-5.964456419E0,-6.103066421E-1,8.488457062E0
1.228441846E1,-6.589021497E0,-7.572075858E0,-2.841817851E0,1.043204035E1
1.229445546E1,-6.384923850E0,-8.659564998E0,-4.810280661E0,1.178533489E1
1.230449246E1,-4.519297190E0,-7.373602062E0,-2.403464957E0,8.976118218E0
1.231452946E1,-2.015615050E0,-4.255500056E0,3.159296518E0,5.670373819E0
1.232456546E1,-4.786331197E-1,-1.484318032E0,7.529673604E0,7.689491158E0
1.233460246E1,7.059568575E-1,3.413902706E-1,7.668878267E0,7.708866082E0
1.234463946E1,1.171864755E0,1.012667584E0,6.380524989E0,6.565810063E0
1.235467546E1,1.520103284E0,7.075470078E-1,5.631768560E0,5.876066190E0
1.236471246E1,2.266515711E0,-4.887190551E-1,5.498766038E0,5.967609884E0
1.237474946E1,3.536472040E0,-1.897312136E0,5.462291107E0,6.778130419E0
1.238478646E1,5.078549454E0,-2.711709409E0,4.841872583E0,7.522550271E0
1.239482246E1,6.743784431E0,-2.552323666E0,2.938279367E0,7.786300161E0
1.240485946E1,7.385210540E0,-1.784697102E0,1.757977080E0,7.798523057E0
1.241489646E1,6.259011077E0,-9.399615508E-1,3.195601880E0,7.090177625E0
1.242493246E1,4.451017499E0,-4.356584966E-2,4.819901962E0,6.560861962E0
1.243496946E1,3.088035623E0,1.182237423E0,3.859297986E0,5.082108842E0
1.244500646E1,2.230934673E0,2.459825976E0,1.245011669E0,3.546528924E0
1.245504346E1,1.966754254E0,2.553671449E0,-9.770577487E-1,3.368085808E0
1.246507946E1,1.364559162E0,1.080497625E0,-1.679074168E0,2.418426531E0
1.247511646E1,7.685220650E-1,-2.145589006E-1,-2.160603048E0,2.303229736E0
1.248515346E1,7.952733690E-1,-6.365536237E-1,-2.867082793E0,3.042667249E0
1.249518946E1,1.074832842E0,-4.728859645E-1,-3.329871785E0,3.530854412E0
1.250522646E1,1.150525634E0,3.804274517E-1,-3.176941368E0,3.400204514E0
1.251526346E1,6.782469025E-1,1.511872451E0,-2.140950848E0,2.707295275E0
1.252530046E1,3.561196992E-1,2.142094710E0,-1.843162242E-1,2.179303434E0
1.253533646E1,2.724606612E-1,2.506524180E0,1.617253311E0,2.995397561E0
1.254537346E1,2.593593898E-1,2.692291975E0,2.263430282E0,3.526871136E0
1.255541046E1,3.956170562E-1,2.583924358E0,1.873774170E0,3.216241219E0
1.256544746E1,5.946872672E-1,2.046010339E0,5.843107983E-1,2.209350665E0
1.257548346E1,7.187917882E-1,1.056314126E0,-7.029817942E-1,1.458301947E0
1.258552046E1,1.879186937E-1,-2.953960723E-1,-1.014938935E0,1.073626247E0
1.259555746E1,-4.948913759E-1,-1.458569233E0,-7.546583167E-1,1.715182456E0
1.260559346E1,-6.170198303E-1,-1.940066977E0,-5.278284493E-1,2.103134855E0
1.261563046E1,-4.132978669E-1,-1.922893120E0,-1.641868919E-2,1.966876369E0
1.262566746E1,-4.670054197E-1,-1.755893717E0,7.754416600E-1,1.975491477E0
1.263570446E1,-3.137177378E-1,-1.094028082E0,1.177242293E0,1.637441809E0
1.264574046E1,-2.099322912E-1,-3.560878319E-1,1.332654999E0,1.395291890E0
1.265577746E1,-3.419343540E-1,8.517872930E-2,1.084844445E0,1.140641043E0
1.266581446E1,-6.624424633E-1,2.617851073E-1,5.882781342E-1,9.238141711E-1
1.267585046E1,-1.078404322E0,4.324062753E-1,8.721589923E-1,1.452787794E0
1.268588746E1,-1.475916168E0,4.996855080E-1,1.584726712E0,2.222469998E0
1.269592446E1,-1.492786847E0,5.802946383E-1,1.922483815E0,2.502218707E0
1.270596146E1,-1.160430817E0,6.002155173E-1,2.012822420E0,2.399648400E0
1.271599746E1,-8.872646892E-1,2.616476977E-1,1.783537891E0,2.009155433E0
1.272603446E1,-3.715803221E-1,-2.975320601E-1,1.461156042E0,1.536741436E0
1.273607146E1,8.137862384E-3,-1.070876032E0,1.235036611E0,1.634673402E0
1.274610746E1,3.263079625E-1,-1.608015295E0,1.372673343E0,2.139257390E0
1.275614446E1,4.725301614E-1,-1.903894932E0,1.475541654E0,2.454653506E0
1.276618146E1,4.395217520E-1,-2.003110487E0,1.603145441E0,2.603018690E0
1.277621846E1,9.972572476E-2,-1.825542242E0,1.804236158E0,2.568621772E0
1.278625446E1,-8.348917633E-2,-1.580287213E0,1.310145558E0,2.054448710E0
1.279629146E1,-3.221137547E-1,-1.357894213E0,1.112527210E0,1.784755098E0
1.280632846E1,-8.444712567E-1,-1.221992058E0,1.460955190E0,2.083455389E0
1.281636546E1,-1.047303566E0,-8.648546505E-1,1.636987664E0,2.127098243E0
1.282640146E1,-1.284758994E0,-5.494722104E-1,1.134665938E0,1.799997826E0
1.283643846E1,-1.511293577E0,-3.044522399E-1,6.027529165E-1,1.655297714E0
1.284647546E1,-1.750277467E0,-8.532023191E-2,7.618378204E-1,1.910797639E0
1.285651146E1,-2.219170368E0,1.431626433E-1,8.995093435E-1,2.398818401E0
1.286654846E1,-2.089572095E0,3.799210829E-1,8.281575251E-1,2.279582518E0
1.287658546E1,-1.697192935E0,4.260369033E-1,1.649773185E0,2.404937185E0
1.288662246E1,-1.457055389E0,3.707076252E-1,2.399298524E0,2.831442734E0
1.289665846E1,-1.183795706E0,2.152120346E-1,1.914108263E0,2.260862432E0
1.290669546E1,-5.970252764E-1,-2.258720934E-2,9.150322393E-1,1.092809847E0
1.291673246E1,2.522880596E-1,-3.758391416E-1,1.079489565E0,1.170556298E0
1.292676946E1,7.962755817E-1,-7.982238740E-1,1.515732198E0,1.889089795E0
1.293680546E1,1.265857869E0,-1.101557541E0,7.655209816E-1,1.844409807E0
1.294684246E1,1.539241514E0,-1.328229534E0,-6.921349168E-3,2.033102564E0
1.295687946E1,1.210715702E0,-1.332130212E0,4.532966226E-1,1.856308498E0
1.296691546E1,8.155596989E-1,-9.497100288E-1,1.291084512E0,1.798328662E0
1.297695246E1,5.369784647E-1,-3.001399183E-1,1.030638417E0,1.200268882E0
1.298698946E1,4.060593063E-1,3.019297510E-1,3.845623103E-1,6.355579480E-1
1.299702646E1,9.448691189E-2,5.843607920E-1,4.524636868E-1,7.450695938E-1
1.300706246E1,-5.364235640E-2,7.693468148E-1,3.892634717E-1,8.638854520E-1
1.301709946E1,2.384553015E-2,7.151863950E-1,3.828096074E-1,8.115438278E-1
1.302713646E1,-2.661535621E-1,4.052775335E-1,6.793587506E-1,8.346351956E-1
1.303717246E1,-1.009504241E-1,3.144042009E-1,7.086533010E-1,7.818123117E-1
1.304720946E1,2.073299879E-1,8.755035996E-3,5.065676808E-1,5.474241407E-1
1.305724646E1,5.087557089E-1,-5.591098836E-1,-1.984913367E-1,7.815593669E-1
1.306728346E1,1.186982439E0,-1.047410863E0,-4.274776572E-1,1.639735946E0
1.307731946E1,1.529163253E0,-1.205085418E0,-6.369810551E-1,2.048491148E0
1.308735646E1,1.528796048E0,-1.150699588E0,-8.830061620E-1,2.107374381E0
1.309739346E1,9.144273448E-1,-1.171735824E0,-1.020446720E0,1.802901472E0
1.310743046E1,1.153089053E0,-8.640003723E-1,-8.446238691E-1,1.670179777E0
1.311746646E1,1.533364477E0,-6.890870556E-1,-1.006846097E0,1.959537357E0
1.312750346E1,1.533449262E0,-6.194940796E-1,-1.670822577E0,2.350933354E0
1.313754046E1,1.648001479E0,-7.519531024E-1,-2.053215278E0,2.738071460E0
1.314757646E1,1.363737921E0,-8.898111516E-1,-2.103220081E0,2.659902200E0
1.315761346E1,1.414883516E0,-6.373280874E-1,-1.475100482E0,2.141028698E0
1.316765046E1,1.722157622E0,-7.529518068E-2,-5.836801761E-1,1.819939226E0
1.317768746E1,1.555304400E0,1.117590022E-1,-5.248215187E-1,1.645265777E0
1.318772346E1,1.164997492E0,1.226741458E-1,-5.393407398E-1,1.289634265E0
1.319776046E1,1.054265261E0,2.988827670E-1,-5.167675638E-1,1.211550603E0
1.320779746E1,1.087571586E0,6.608612300E-1,-3.665555173E-1,1.324353604E0
1.321783446E1,1.244888000E0,1.173504753E0,-1.716754210E-1,1.719398728E0
1.322787046E1,1.153136415E0,1.516265026E0,-3.796193665E-1,1.942393906E0
1.323790746E1,8.506143415E-1,1.650326770E0,-8.228944463E-1,2.030831967E0
1.324794446E1,8.583993244E-1,1.732781574E0,-1.104351341E0,2.226875225E0
1.325798046E1,1.159012867E0,1.731871455E0,-9.124147332E-1,2.274904440E0
1.326801746E1,1.542178570E0,1.439005473E0,-5.135147578E-1,2.170886662E0
1.327805446E1,1.704401967E0,9.555470118E-1,-3.768384308E-1,1.989990794E0
1.328809146E1,1.554520288E0,4.686593047E-1,-6.002517700E-1,1.731033523E0
1.329812746E1,1.381473695E0,1.123511790E-1,-7.763488555E-1,1.588650340E0
1.330816446E1,1.329957386E0,-1.200007989E-1,-5.100192922E-1,1.429442730E0
1.331820146E1,1.266243201E0,-3.434876668E-1,-3.889860213E-2,1.312580939E0
1.332823846E1,1.034660717E0,-4.938340531E-1,8.161777496E-2,1.149372147E0
1.333827446E1,7.555257511E-1,-6.286223142E-1,-2.145653325E-1,1.005993766E0
1.334831146E1,8.581034553E-1,-8.236915679E-1,-6.482924938E-1,1.354655859E0
1.335834846E1,1.241021236E0,-1.067744701E0,-1.027953376E0,1.933106463E0
1.336838446E1,1.662813061E0,-1.158454604E0,-1.365191538E0,2.443504099E0
1.337842146E1,1.972635384E0,-1.183865873E0,-1.559667592E0,2.779458897E0
1.338845846E1,2.047679134E0,-1.216394957E0,-1.433335574E0,2.779758514E0
1.339849546E1,1.972257653E0,-1.170847412E0,-1.024408793E0,2.511990703E0
1.340853146E1,1.692906341E0,-1.067391822E0,-5.890479201E-1,2.086201005E0
1.341856846E1,1.070636880E0,-9.465198610E-1,-3.503809494E-1,1.471370105E0
1.342860546E1,2.185548878E-1,-7.488587558E-1,-3.167787552E-1,8.419646399E-1
1.343864246E1,-6.317694318E-1,-5.356096315E-1,-4.258322507E-1,9.313127284E-1
1.344867846E1,-1.325763763E0,-3.428511974E-1,-3.809876150E-1,1.421389483E0
1.345871546E1,-1.722398527E0,-8.308637626E-2,-1.440286160E-2,1.724461503E0
1.346875246E1,-1.780218719E0,1.281811632E-1,5.511374974E-1,1.867983308E0
1.347878846E1,-1.693171805E0,2.636715652E-1,1.019302420E0,1.993823181E0
1.348882546E1,-1.552956743E0,3.561013901E-1,1.156564638E0,1.968787598E0
1.349886246E1,-1.373519728E0,4.749702776E-1,9.461514133E-1,1.734172916E0
1.350889946E1,-1.242639161E0,5.770196493E-1,7.506322163E-1,1.562226771E0
1.351893546E1,-1.172880124E0,6.562762090E-1,7.828673315E-1,1.555386610E0
1.352897246E1,-9.951791471E-1,7.636475337E-1,9.516413641E-1,1.574534971E0
1.353900946E1,-7.732656187E-1,7.745027433E-1,9.817013150E-1,1.470214844E0
1.354904646E1,-7.208365595E-1,5.966908522E-1,7.086205566E-1,1.173792321E0
1.355908246E1,-9.078188217E-1,4.024760960E-1,4.326512736E-1,1.083193956E0
1.356911946E1,-1.234727878E0,3.166669272E-1,2.122188449E-1,1.292233614E0
1.357915646E1,-1.474278363E0,4.066487787E-1,2.765329546E-1,1.554133326E0
1.358919346E1,-1.363080109E0,6.493509860E-1,6.714924914E-1,1.652436459E0
1.359922946E1,-1.318595077E0,9.143700421E-1,1.048085924E0,1.916572371E0
1.360926646E1,-1.285119767E0,1.071972092E0,1.444927679E0,2.210989141E0
1.361930346E1,-1.308041437E0,1.073684084E0,1.838695554E0,2.498914015E0
1.362933946E1,-1.388381596E0,1.105125001E0,2.312172087E0,2.914625959E0
1.363937646E1,-1.407019596E0,1.140716783E0,2.827184901E0,3.357664871E0
1.364941346E1,-1.481251752E0,1.261735875E0,3.025130693E0,3.596873626E0
1.365945046E1,-1.406205078E0,1.375794879E0,2.910838677E0,3.513289922E0
1.366948646E1,-1.462524290E0,1.462305019E0,2.883806999E0,3.548754158E0
1.367952346E1,-1.476819563E0,1.635753316E0,3.040266795E0,3.754984303E0
1.368956046E1,-9.629048556E-1,1.567641440E0,2.873255698E0,3.411786006E0
1.369959746E1,-4.034976411E-1,1.782130759E0,1.391002902E0,2.296451494E0
1.370963346E1,7.489803779E-1,2.362830901E0,-2.100548488E0,3.249037616E0
1.371967046E1,3.069023986E0,-2.635391258E-2,-7.538509331E0,8.139332018E0
1.372970746E1,5.495219702E0,-4.696428064E0,-1.512226091E1,1.676116497E1
1.373974346E1,7.157960258E0,-7.399340336E0,-1.181966346E1,1.567453594E1
1.374978046E1,4.369950532E0,-5.116602548E0,-4.985552412E-1,6.747195463E0
1.375981746E1,2.085470273E0,-1.239136679E0,4.849952558E0,5.422793172E0
1.376985446E1,2.446056953E0,8.735610815E-1,4.897314420E0,5.543463909E0
1.377989046E1,7.894957352E-1,2.130204397E0,4.112730346E0,4.698470515E0
1.378992746E1,-1.260032288E0,2.923060819E0,3.270272870E0,4.563622527E0
1.379996446E1,-2.431520775E0,3.287764816E0,2.172962746E0,4.630708138E0
1.381000146E1,-2.974102042E0,3.220986689E0,1.649216530E0,4.684010394E0
1.382003746E1,-3.137883722E0,2.486428761E0,1.543678381E0,4.290872310E0
1.383007446E1,-2.167181019E0,1.178717619E0,9.509186482E-1,2.643916615E0
1.384011146E1,-3.152228111E-1,-1.574220289E-1,-2.904072279E-1,4.565999056E-1
1.385014746E1,1.477734067E0,-1.126134412E0,-1.080431551E0,2.149234521E0
1.386018446E1,2.904304998E0,-1.689777788E0,-1.355902067E0,3.623369552E0
1.387022146E1,3.515467672E0,-1.925621139E0,-1.649690155E0,4.334513506E0
1.388025846E1,3.236467193E0,-1.794831204E0,-1.511519864E0,3.997603187E0
1.389029446E1,2.359659079E0,-1.532480963E0,-7.389564961E-1,2.909045475E0
1.390033146E1,1.192399299E0,-1.286320054E0,2.468331921E-1,1.771260002E0
1.391036846E1,-4.779104769E-2,-9.375695280E-1,7.419508553E-1,1.196583334E0
1.392040546E1,-7.550953960E-1,-4.305398440E-1,5.926006883E-1,1.052002467E0
1.393044146E1,-1.301672065E0,-6.938583836E-2,1.972324312E-2,1.303669270E0
1.394047846E1,-1.529746220E0,6.078268379E-2,-2.357696754E-1,1.549001411E0
1.395051546E1,-1.474819815E0,1.793121770E-3,-8.639436543E-2,1.477349210E0
1.396055246E1,-1.386632109E0,-3.081299192E-1,2.142753106E-1,1.436525865E0
1.397058846E1,-1.115224239E0,-5.833574098E-1,4.503578120E-1,1.336732258E0
1.398062546E1,-8.346531969E-1,-6.630499890E-1,6.428645235E-1,1.244811650E0
1.399066246E1,-4.781326711E-1,-3.763058956E-1,5.223352826E-1,8.019046861E-1
1.400069846E1,-1.934849507E-1,-2.907133296E-2,1.822793466E-1,2.674085427E-1
1.401073546E1,1.387649524E-1,1.848433506E-1,-7.177281797E-2,2.420208952E-1
1.402077246E1,5.125949907E-1,2.951310472E-1,-2.103360415E-1,6.277716224E-1
1.403080946E1,9.606185943E-1,3.733960287E-1,-3.266044164E-1,1.081148983E0
1.404084546E1,1.451388853E0,3.328833027E-1,-4.932003611E-1,1.568625988E0
1.405088246E1,1.828625479E0,4.507099606E-2,-6.251076990E-1,1.933044793E0
1.406091946E1,1.979118776E0,-3.494593551E-1,-5.461574239E-1,2.082623563E0
1.407095646E1,1.700808853E0,-5.984329936E-1,-1.974973100E-1,1.813802081E0
1.408099246E1,8.402840656E-1,-5.112458188E-1,4.297329283E-1,1.073368524E0
1.409102946E1,-1.872909951E-1,-1.630632763E-1,7.896278822E-1,8.277558465E-1
1.410106646E1,-8.615743625E-1,1.899879503E-1,5.741825438E-1,1.052659203E0
1.411110346E1,-1.305711322E0,3.748684307E-1,2.010705435E-1,1.373258082E0
1.412113946E1,-1.454320062E0,4.201786510E-1,-1.011281794E-1,1.517176275E0
1.413117646E1,-1.231044132E0,4.080993267E-1,-3.064478946E-1,1.332638371E0
1.414121346E1,-8.295760596E-1,2.598142301E-1,-3.060812742E-1,9.216211907E-1
1.415124946E1,-3.831487459E-1,4.206786610E-2,-1.636027551E-1,4.187344365E-1
1.416128646E1,4.753786325E-3,-8.220191181E-2,-1.860736048E-1,2.034776135E-1
1.417132346E1,4.607290184E-1,-7.303493947E-2,-1.689476949E-1,4.961337062E-1
1.418136046E1,8.391017586E-1,-6.259444356E-4,-1.783868551E-2,8.392915893E-1
1.419139646E1,1.003607908E0,1.298809122E-1,1.619702125E-1,1.024857178E0
1.420143321E1,9.252049327E-1,2.271847934E-1,2.912106353E-1,9.962031580E-1
1.421147021E1,7.395874107E-1,2.896585650E-1,3.697095054E-1,8.761145706E-1
1.422150721E1,5.152689224E-1,3.222996231E-1,3.870464998E-1,7.205443099E-1
1.423154321E1,2.967216361E-1,3.439153176E-1,3.320089978E-1,5.626290515E-1
1.424158021E1,1.404407644E-1,2.921090600E-1,2.946335953E-1,4.380185690E-1
1.425161721E1,5.376631737E-2,2.148961388E-1,2.481570017E-1,3.326455544E-1
1.426165421E1,2.482961655E-2,1.604698900E-1,1.340000564E-1,2.105305455E-1
1.427169021E1,5.907325029E-2,9.626907013E-2,5.047667384E-2,1.237144994E-1
1.428172721E1,1.397718430E-1,9.511132143E-2,-5.568888187E-3,1.691547932E-1
1.429176421E1,2.555034435E-1,1.038059118E-1,-3.210823059E-2,2.776483665E-1
1.430180021E1,3.685219359E-1,1.442846509E-1,1.844211817E-3,3.957649288E-1
1.431183721E1,4.958164054E-1,1.627841449E-1,8.203000367E-2,5.282627255E-1
1.432187421E1,5.792017937E-1,1.593384538E-1,8.351168811E-2,6.064962182E-1
1.433191121E1,6.298620701E-1,1.764020178E-1,1.101492637E-1,6.633074397E-1
1.434194721E1,6.167368251E-1,1.732437904E-1,1.209935099E-1,6.519333952E-1
1.435198421E1,5.964317840E-1,1.567422169E-1,1.818495762E-1,6.429372162E-1
1.436202121E1,5.200238782E-1,1.670812637E-1,2.922397453E-1,6.194715904E-1
1.437205821E1,3.828657407E-1,1.824923314E-1,3.349407917E-1,5.404395992E-1
1.438209421E1,2.236220849E-1,2.136461502E-1,3.228148359E-1,4.470580864E-1
1.439213121E1,1.190680218E-1,2.213334846E-1,2.753260893E-1,3.727870178E-1
1.440216821E1,9.972835600E-2,2.051182786E-1,1.637290549E-1,2.807604969E-1
1.441220521E1,8.912267625E-2,1.662674774E-1,6.358086884E-2,1.990734848E-1
1.442224121E1,1.483462000E-1,9.840059951E-2,2.470916390E-2,1.797214951E-1
1.443227821E1,1.599751425E-1,1.785432681E-2,-6.521399617E-3,1.611004403E-1
1.444231521E1,1.922085035E-1,-9.512718201E-2,-5.016560197E-2,2.202495793E-1
1.445235121E1,2.168825841E-1,-2.034991845E-1,-1.053674108E-1,3.155190401E-1
1.446238821E1,2.169124049E-1,-2.958202878E-1,-1.556528807E-1,3.984826888E-1
1.447242521E1,2.447194237E-1,-3.478425269E-1,-1.439613730E-1,4.490065665E-1
1.448246221E1,2.035936171E-1,-3.731185783E-1,-4.722971499E-2,4.276663190E-1
1.449249821E1,1.022713101E-1,-3.756736654E-1,6.944094837E-2,3.954897838E-1
1.450253521E1,-2.973893881E-3,-3.075075562E-1,7.514841557E-2,3.165707276E-1
1.451257221E1,-1.556177974E-1,-2.542723122E-1,6.858140767E-2,3.058998482E-1
1.452260921E1,-2.494849044E-1,-2.690777546E-1,7.086766899E-2,3.737215301E-1
1.453264521E1,-3.190235013E-1,-2.537599500E-1,-5.612742305E-3,4.076783161E-1
1.454268221E1,-4.163837349E-1,-2.630864051E-1,-9.690298140E-2,5.019761539E-1
1.455271921E1,-4.158732730E-1,-3.101421654E-1,-2.298920542E-1,5.674408327E-1
1.456275621E1,-3.949595368E-1,-3.809060463E-1,-3.110537463E-1,6.307431212E-1
1.457279221E1,-3.842632252E-1,-5.184208640E-1,-3.314739776E-1,7.254608303E-1
1.458282921E1,-3.867330891E-1,-6.327535182E-1,-3.576847064E-1,8.233333749E-1
1.459286621E1,-3.954910487E-1,-6.867705350E-1,-3.270488048E-1,8.573376569E-1
1.460290221E1,-4.450906402E-1,-6.957445492E-1,-2.738075674E-1,8.701360466E-1
1.461293921E1,-5.130703694E-1,-7.616270283E-1,-1.965927458E-1,9.391302582E-1
1.462297621E1,-5.237608337E-1,-7.634348412E-1,-1.775793546E-1,9.427049352E-1
1.463301321E1,-4.314812458E-1,-4.757798977E-1,-2.917181736E-1,7.054375021E-1
1.464304921E1,-4.530726743E-1,-3.398169310E-1,-3.106456107E-1,6.459497583E-1
1.465308621E1,-6.851223511E-1,-5.611830139E-1,-1.385351568E-1,8.963877513E-1
1.466312321E1,-6.189540893E-1,-7.791742301E-1,-8.661889851E-2,9.988590887E-1
1.467316021E1,-5.492874384E-1,-9.558555986E-1,-1.443262392E-1,1.111848316E0
1.468319621E1,-4.626925135E-1,-8.298029315E-1,-2.927537155E-1,9.941639730E-1
1.469323321E1,-3.188708889E-1,-5.782647774E-1,-3.771518415E-1,7.604684794E-1
1.470327021E1,-2.072241533E-1,-4.386701050E-1,-2.770510179E-1,5.586864749E-1
1.471330721E1,-1.520135736E-1,-3.660951953E-1,-1.442256671E-1,4.218232588E-1
1.472334321E1,-1.367061478E-1,-3.334263629E-1,-3.431204617E-2,3.619931309E-1
1.473338021E1,-1.776571226E-1,-3.029584225E-1,-6.784524322E-3,3.512718160E-1
1.474341721E1,-2.188057333E-1,-2.744807281E-1,-2.936120868E-2,3.522466460E-1
1.475345321E1,-2.585106665E-1,-2.543715687E-1,-8.951619387E-2,3.735583069E-1
1.476349021E1,-2.301212651E-1,-2.190266119E-1,-1.329528201E-1,3.443906295E-1
1.477352721E1,-1.207502657E-1,-2.022528505E-1,-1.023999488E-1,2.568513028E-1
1.478356421E1,-2.038397849E-2,-1.500579724E-1,-3.987274826E-2,1.565973745E-1
1.479360021E1,4.537848651E-2,-1.179035488E-1,8.101317286E-3,1.265941752E-1
1.480363721E1,5.761261582E-2,-5.292592630E-2,6.877728939E-2,1.041666104E-1
1.481367421E1,4.246949673E-2,-2.000654072E-2,7.559572756E-2,8.898670603E-2
1.482371121E1,8.991263509E-3,1.996151716E-2,5.967258990E-2,6.356196167E-2
1.483374721E1,-3.990549266E-2,4.353339761E-2,3.379807591E-2,6.804347866E-2
1.484378421E1,-6.680736244E-2,7.019114614E-2,6.531924605E-3,9.712201970E-2
1.485382121E1,-7.477302432E-2,8.230014503E-2,-1.232710004E-2,1.118761656E-1
1.486385821E1,-6.775753498E-2,8.888279423E-2,-4.122462451E-2,1.191247427E-1
1.487389421E1,1.758257747E-3,7.281961575E-2,-5.243782997E-2,8.975251484E-2
1.488393121E1,8.030799866E-2,5.514012069E-2,-1.197006905E-1,1.543310172E-1
1.489396821E1,1.548067886E-1,6.366463020E-2,-1.156713742E-1,2.034654608E-1
1.490400521E1,1.070262659E-1,6.675049827E-2,-7.148688912E-2,1.449849162E-1
1.491404121E1,1.415318549E-2,1.408171789E-1,4.435405433E-2,1.483141014E-1
1.492407821E1,-2.598678052E-2,2.329736830E-1,1.577982241E-1,2.825815445E-1
1.493411521E1,-3.881118625E-1,2.391340171E-1,7.256909180E-1,8.569966187E-1
1.494415221E1,-4.751670803E0,-1.246629301E0,4.812837356E0,6.877198808E0
1.495418821E1,-4.533434588E0,-1.406533400E0,1.507861261E0,4.980362532E0
1.496422521E1,3.569666684E-2,1.584553927E0,-1.037876101E0,1.894537463E0
1.497426221E1,4.210308681E0,4.366784849E0,-1.513565220E0,6.251910810E0
1.498429821E1,8.130722349E0,3.971320113E0,-6.850011967E0,1.134912743E1
1.499433521E1,5.492283815E0,2.825354138E-1,-3.045232835E0,6.286370239E0
1.500437221E1,7.625541043E-1,-3.275704349E0,7.127229631E-1,3.437979314E0
1.501440921E1,-1.184071110E0,-4.260618416E0,2.825959325E-1,4.431112066E0
1.502444521E1,-4.139869612E-1,-1.770608528E0,-1.129521266E0,2.140620950E0
1.503448221E1,-7.598632157E-2,8.367093703E-1,6.079776961E-1,1.037059965E0
1.504451921E1,-1.414704591E0,1.885034445E0,2.420925620E0,3.378701644E0
1.505455621E1,-1.517818485E0,2.387234987E0,3.074139131E0,4.177678211E0
1.506459221E1,-9.767364442E-1,2.088382041E0,3.132046446E0,3.889096112E0
1.507462921E1,-1.945678550E-1,1.056761291E0,2.334372795E0,2.569804939E0
1.508466621E1,2.738274479E-1,1.797176814E-1,8.558668953E-1,9.163995083E-1
1.509470321E1,3.945081317E-1,-3.711388573E-1,-5.281368899E-1,7.565112636E-1
1.510473921E1,7.558771688E-1,-5.316953592E-1,-1.676767441E0,1.914575488E0
1.511477621E1,1.347387936E0,-4.811963198E-1,-1.913379115E0,2.389147084E0
1.512481321E1,1.651081207E0,-3.031490417E-1,-1.069161628E0,1.990244980E0
1.513485021E1,1.624544789E0,-1.246380794E-1,3.303852260E-2,1.629653940E0
1.514488621E1,1.152703137E0,-2.361832197E-1,6.674392015E-1,1.352768318E0
1.515492321E1,5.639335442E-1,-1.146624371E-1,8.232078570E-1,1.004410122E0
1.516496021E1,1.773109674E-2,6.945118099E-2,6.241908556E-1,6.282929910E-1
1.517499621E1,-3.726828146E-1,2.385902260E-1,3.283901560E-1,5.510516045E-1
1.518503321E1,-6.017901725E-1,3.485544254E-1,2.526885939E-1,7.399277834E-1
1.519507021E1,-5.585763252E-1,3.062255542E-1,2.596029264E-1,6.878773731E-1
1.520510688E1,-2.801775241E-1,1.286736815E-1,2.239501137E-1,3.810643183E-1
1.521514288E1,9.450854659E-2,-5.390372694E-2,1.444116086E-1,1.808098168E-1
1.522517988E1,3.155338830E-1,-1.930101568E-1,-1.004960954E-2,3.700210083E-1
1.523521688E1,3.736341566E-1,-3.070940119E-1,-2.249418014E-1,5.333929407E-1
1.524525388E1,3.307992089E-1,-3.720787972E-1,-4.326284695E-1,6.595742115E-1
1.525528988E1,2.448527402E-1,-3.850667788E-1,-5.109566009E-1,6.850590752E-1
1.526532688E1,1.552383131E-1,-3.241099942E-1,-4.163018739E-1,5.499577006E-1
1.527536388E1,3.371387601E-2,-1.988540103E-1,-2.396346849E-1,3.132160996E-1
1.528540088E1,-7.943442464E-2,-7.441225111E-2,-7.932274282E-2,1.346815075E-1
1.529543688E1,-1.626812339E-1,-4.597519487E-2,2.158908963E-2,1.704259112E-1
1.530547388E1,-2.526172578E-1,-7.233663574E-2,1.458880305E-3,2.627740401E-1
1.531551088E1,-3.200181127E-1,-1.034087397E-1,-5.075090826E-2,3.401185302E-1
1.532554788E1,-3.399582875E-1,-1.392912018E-1,-9.972894073E-2,3.806829885E-1
1.533558388E1,-2.741566461E-1,-1.494206259E-1,-1.197246641E-1,3.343985425E-1
1.534562088E1,-1.703276378E-1,-1.305658405E-1,-1.441987699E-1,2.585579783E-1
1.535565788E1,-4.265192986E-2,-1.162585808E-1,-1.347075695E-1,1.829791628E-1
1.536569388E1,4.609769404E-2,-6.854120806E-2,-9.702811182E-2,1.274258572E-1
1.537573088E1,8.158152223E-2,-5.084446371E-2,-4.637952983E-2,1.067322118E-1
1.538576788E1,8.552020669E-2,-3.830876425E-2,-1.180786729E-2,9.444941980E-2
1.539580488E1,6.353643000E-2,-1.264548093E-2,-1.471627235E-2,6.643308511E-2
1.540584088E1,3.152877152E-2,-1.103325740E-2,4.450315833E-3,3.369868712E-2
1.541587788E1,-1.011568308E-2,-1.645669609E-2,1.940866292E-2,2.738331767E-2
1.542591488E1,-2.466998756E-2,-1.708614886E-2,1.943322122E-2,3.575185108E-2
1.543595188E1,-3.336830556E-2,-6.823145181E-2,1.764865100E-2,7.797723844E-2
1.544598788E1,-4.389504790E-2,-2.293497249E-2,-5.335993588E-2,7.280158618E-2
1.545602488E1,5.633149087E-2,-1.607721180E-2,5.870662987E-2,8.293480569E-2
1.546606188E1,9.813440502E-2,-3.930893049E-2,4.273554504E-2,1.140257878E-1
1.547609888E1,1.441829824E-1,-4.020618573E-2,5.321375549E-2,1.588614918E-1
1.548613488E1,1.740838891E-1,-3.373784959E-2,7.582552314E-2,1.928547456E-1
1.549617188E1,1.761228132E-1,-7.776942998E-3,1.080325717E-1,2.067625757E-1
1.550620888E1,1.952882320E-1,1.007972270E-2,9.876941264E-2,2.190764506E-1
1.551624588E1,1.805380458E-1,1.337799087E-2,9.666207612E-2,2.052230824E-1
1.552628188E1,1.745124900E-1,2.018049538E-2,9.086339235E-2,1.977827537E-1
1.553631888E1,1.428118104E-1,-1.217945784E-2,1.272745889E-1,1.916830023E-1
1.554635588E1,8.761526406E-2,4.739796862E-2,3.486285388E-2,1.055387157E-1
1.555639288E1,9.788180530E-2,5.748456180E-2,9.470559776E-2,1.478325840E-1
1.556642888E1,1.114081693E-1,6.641852260E-3,5.019074500E-2,1.223724040E-1
1.557646588E1,1.431106031E-1,-7.264288366E-3,1.589507103E-2,1.441737420E-1
1.558650288E1,1.612270314E-1,-7.065921575E-3,-3.549259901E-3,1.614208169E-1
1.559653888E1,1.798732173E-1,-1.846433759E-2,-1.364915550E-2,1.813328584E-1
1.560657588E1,1.788008380E-1,-2.564676493E-2,-1.490630686E-2,1.812448460E-1
1.561661288E1,1.607107222E-1,-9.435213357E-3,2.656916320E-2,1.631651921E-1
1.562664988E1,1.551810104E-1,1.091251239E-2,9.372852802E-2,1.816184624E-1
1.563668588E1,1.383474612E-1,1.542393163E-2,9.912258446E-2,1.708894509E-1
1.564672288E1,1.149966055E-1,1.482970834E-2,6.402642667E-2,1.324519643E-1
1.565675988E1,9.093472838E-2,1.406182274E-2,2.809996426E-2,9.621053828E-2
1.566679688E1,1.020549631E-1,-1.576979443E-2,1.419119239E-3,1.032759208E-1
1.567683288E1,7.645994604E-2,1.724066153E-2,-5.225715101E-2,9.420283217E-2
1.568686988E1,6.315577626E-2,7.222773135E-4,-1.178740203E-2,6.425042106E-2
1.569690688E1,5.986028552E-2,-1.604198232E-2,1.372341514E-3,6.198775928E-2
1.570694388E1,5.023810744E-2,-2.300528526E-2,2.477055967E-2,6.055320979E-2
1.571697988E1,5.047141135E-2,-1.771136239E-2,5.220569551E-2,7.474282818E-2
1.572701688E1,7.041977227E-2,-9.506110847E-4,6.903865993E-2,9.862142035E-2
1.573705388E1,7.905961812E-2,-1.200784206E-2,5.294361413E-2,9.590431567E-2
1.574709088E1,9.169252753E-2,-4.295086876E-2,8.150433898E-3,1.015811316E-1
1.575712688E1,6.686700404E-2,-5.817497179E-2,-4.329863191E-2,9.864225817E-2
1.576716388E1,6.760609210E-2,-8.429272994E-2,-5.375111461E-2,1.206856675E-1
1.577720088E1,6.202375531E-2,-1.036953995E-1,-4.795301557E-2,1.299968222E-1
1.578723788E1,4.392369926E-2,-8.224620447E-2,-3.365072608E-3,9.330087470E-2
1.579727388E1,2.559443235E-2,-4.721977472E-2,5.162506700E-3,5.395770165E-2
1.580731088E1,2.468343616E-2,-3.397320002E-2,2.354732215E-2,4.814485145E-2
1.581734788E1,4.244727731E-2,-2.289828122E-2,1.429410338E-2,5.030332022E-2
1.582738488E1,7.470402718E-2,-2.301361755E-2,-2.128035665E-2,8.101340536E-2
1.583742088E1,1.119963992E-1,-2.976071969E-2,-3.334900975E-2,1.205862775E-1
1.584745788E1,1.197585779E-1,-2.102761075E-2,-3.188311279E-2,1.257012740E-1
1.585749488E1,1.019590688E-1,-3.132353425E-3,-2.023195088E-2,1.039942074E-1
1.586753188E1,8.281411529E-2,-2.356515616E-2,1.011568308E-4,8.610171025E-2
1.587756788E1,6.497952282E-2,-2.872927085E-2,6.661148071E-3,7.135881364E-2
1.588760488E1,5.023167551E-2,-5.165576488E-3,1.495074570E-2,5.266335730E-2
1.589764188E1,2.945944190E-2,-3.365218788E-3,2.452848494E-2,3.848155387E-2
1.590767788E1,5.223960936E-2,-1.275599331E-2,7.261715591E-2,9.036007682E-2
1.591771488E1,4.949200273E-2,1.305098534E-3,9.687082171E-3,5.044800469E-2
1.592775188E1,6.668983340E-2,2.235770613E-2,5.050064743E-2,8.658935439E-2
1.593778888E1,8.837891042E-2,4.512588680E-3,2.537691593E-4,8.849440470E-2
1.594782488E1,1.274862581E-1,-2.578972936E-2,-3.888339937E-2,1.357563070E-1
1.595786188E1,1.285194612E-1,-2.238664985E-2,-3.932310998E-2,1.362524164E-1
1.596789888E1,1.384386778E-1,-2.769884527E-2,2.550555468E-3,1.412055200E-1
1.597793588E1,1.289907467E-1,-3.322753385E-2,3.333088338E-2,1.373085195E-1
1.598797188E1,9.487867534E-2,-3.225031793E-2,4.353719831E-2,1.092590210E-1
1.599800888E1,8.311115384E-2,-1.621681407E-2,5.005801320E-2,9.836795025E-2
1.600804588E1,4.756592989E-2,-3.260041997E-2,5.588534832E-2,8.030241108E-2
1.601808288E1,2.817305446E-2,-2.093054697E-2,6.490935624E-2,7.379046904E-2
1.602811888E1,2.250359416E-2,-2.582817480E-2,5.716647327E-2,6.664466993E-2
1.603815588E1,4.094220400E-2,-1.877248585E-2,2.612360537E-2,5.206834980E-2
1.604819288E1,7.168101668E-2,-2.819176555E-2,-2.133648992E-3,7.705515074E-2
1.605822988E1,7.952564120E-2,-3.903571934E-2,-3.468802214E-2,9.513870859E-2
1.606826588E1,8.407535970E-2,-5.535851419E-2,-4.133104384E-2,1.088185939E-1
1.607830288E1,9.159780264E-2,-4.538301811E-2,-1.250719428E-2,1.029864345E-1
1.608833988E1,7.021453500E-2,-3.173693240E-2,1.651429117E-2,7.880377920E-2
1.609837688E1,4.080654860E-2,-3.403269544E-2,3.265436053E-2,6.236750780E-2
1.610841288E1,7.475665212E-3,-1.303680584E-2,5.257056177E-2,5.467639199E-2
1.611844988E1,1.248789847E-2,-9.342827350E-3,4.010897577E-2,4.303447418E-2
1.612848688E1,6.453513443E-2,-2.088917792E-2,-5.716822743E-3,6.807219251E-2
1.613852388E1,1.359454250E-1,-6.607646048E-3,-2.561021984E-2,1.384944148E-1
1.614855988E1,2.199874556E-1,-8.896465525E-2,9.092420340E-4,2.372973182E-1
1.615859688E1,1.528228283E-1,-2.702758491E-2,-1.433702195E-1,2.112825762E-1
1.616863388E1,1.913881391E-1,9.737075865E-3,-6.303473890E-2,2.017364834E-1
1.617866988E1,2.239284790E-1,-9.033655822E-3,-9.356071293E-2,2.428562901E-1
1.618870688E1,1.935264659E-1,-7.512064129E-2,-2.515296757E-2,2.091130688E-1
1.619874388E1,-1.102363873E-1,-3.037953052E-1,1.026999110E-1,3.391031115E-1
1.620878113E1,-2.913579851E-1,-2.427765401E-1,1.520691222E-1,4.086012015E-1
1.621881713E1,-2.679597670E-1,6.577386707E-3,8.014486134E-2,2.797657905E-1
1.622885413E1,-2.730012363E-1,-1.942035735E-2,3.970610261E-2,2.765563232E-1
1.623889113E1,-1.488876522E-1,-4.688911468E-2,1.520977736E-1,2.179446140E-1
1.624892813E1,3.356126368E-2,-6.793455943E-2,8.654756248E-2,1.150301845E-1
