Time (ms),Linear Acceleration x (m/s^2),Linear Acceleration y (m/s^2),Linear Acceleration z (m/s^2),Absolute acceleration (m/s^2)
0.384291634,0.02754923877,-0.03275668681,-0.1225845373,0.1298419419
10.42229147,0.001098070554,-0.01502105847,-0.1197340196,0.1206775597
20.459291529999998,0.03008362303,-0.01692681223,-0.05962698162,0.06889788301
30.49729159,0.03796332171,-0.06199861228,0.07116763115,0.1017343278
40.53429165,0.03102284119,-0.100370965,0.178466962,0.2070922592
50.57129147,-0.02778481761,-0.1291758111,0.2093174565,0.2475321875
60.60929154,-0.06422506755,-0.1149455886,0.1841481167,0.2263799384
70.6462916,-0.06583254023,-0.07445712849,0.05857331336,0.115362994
80.68329166000001,-0.06526046326,-0.02374335006,-0.04076269448,0.08052497748
90.72129149,-0.06648302469,-0.02957697093,-0.1354916811,0.1537946209
100.7582915,-0.08772595916,-0.03039601967,-0.192860468,0.2140442058
110.7962916,-0.09260811014,-0.02150985986,-0.2047232991,0.2257223191
120.83329140000001,-0.08355535037,-0.042003766,-0.1477445215,0.1748549587
130.8702915,-0.05415771537,-0.0562731649,-0.05031996846,0.09290762319
140.9086667,-0.04439207951,-0.09220839813,0.01395847321,0.103285451
150.9456665,0.001228828914,-0.09506651714,0.05849613011,0.1116286251
160.98266650000002,-0.01522021098,-0.07549530163,0.1665012199,0.1834498613
171.0206666,-0.0004827241972,-0.07050134093,0.2359287196,0.2462377567
181.0576667,0.05338041941,-0.07005739108,0.2009319645,0.2193881528
191.09566650000002,0.022687416,-0.05999214023,0.07451282322,0.09831549501
201.13266660000002,0.03427873531,-0.03702603132,-0.01442040324,0.0524776783
211.1696666,0.0007150779292,-0.02796869427,-0.06829372466,0.07380238494
221.2076664,0.01927293442,-0.042087235,-0.04824245274,0.0668589231
231.2446665,0.02577542195,-0.027642712,-0.005404581428,0.03817985599
241.2816666,-0.006135757472,-0.007326999754,-0.01536063552,0.01809092504
251.3196666,0.03436273422,-0.01764090344,-0.07613601029,0.08537383112
261.3566665,0.05484479975,-0.04266610935,-0.1321137446,0.1492728725
271.3936665,-0.007194121778,-0.04001264289,-0.1669953096,0.1718726284
281.4316666,-0.04293049486,-0.05569999158,-0.1573935968,0.1723898511
291.4686666,-0.06929301381,-0.09025835171,-0.10606206,0.1555546605
301.5066665,-0.06834004557,-0.123412503,-0.0105203104,0.1414626617
311.5436665,-0.04532555094,-0.1369679569,0.03193515301,0.1477649511
321.58066660000003,-0.07193586392,-0.1685095923,-0.009109377265,0.1834481724
331.6186666,-0.005216593444,-0.1476247998,-0.03100953877,0.1509366948
341.6556665,-0.009225353133,-0.09641327709,-0.1562300009,0.1838163222
351.6926665,-0.08841657015,-0.06627585053,-0.2937506658,0.3138461915
361.73066659999995,-0.03142151166,-0.0226695089,-0.3184686005,0.3208168754
371.7676667,0.0378249437,0.002714423686,-0.3161706448,0.3184367615
381.8056665,0.08325409999,0.04007403865,-0.3289871567,0.3417158513
391.8426665,-0.02093354367,0.1956655236,-0.1721285802,0.2614411186
401.8796666,0.6266759223,0.218887302,0.6082501763,0.9003347375
411.9176664,-0.5266490659,0.1730556563,0.3850537688,0.6749621498
421.95466650000003,-1.340920331,0.888535143,0.2933758593,1.635124285
431.9916666,-1.391550348,0.9326966777,0.1399513525,1.681047841
442.0296666,-1.087674936,0.4679786888,-0.07992851436,1.186772677
452.0666664,0.3605435929,-0.03088762432,0.7900436193,0.8689733299
462.1046665,0.9978281551,-0.4918993556,0.7158330971,1.322891918
472.1416666,0.8934584986,-0.7238315034,0.2362719512,1.173892912
482.17866660000004,0.8383942455,-0.7210511523,0.185180735,1.121209873
492.21666650000003,0.4018220118,-0.6319682372,-0.1369897377,0.7613218572
502.2536665,-0.05822354022,-0.5285695839,-0.5362855697,0.7552337373
512.2906666,0.09091828309,-0.4514725837,-0.4394539243,0.6365637279
522.3286666,0.4412238765,-0.3076895508,-0.2360725611,0.5874364842
532.3656665,0.4086638388,-0.02756231278,-0.309687252,0.5134900275
542.4026665,0.1663994418,0.1758822003,-0.5078505599,0.5626148895
552.4406666,0.05647789054,0.1257389639,-0.4726626009,0.4923514735
562.4776667,0.3550665426,-0.156285257,-0.2466414034,0.4597056809
572.5156665,1.388321662,0.09429088399,-1.437961307,2.001014874
582.5526665,-0.1487897113,-0.1113238232,0.7612542683,0.7836066825
592.5896666,-0.3718199117,0.1064178631,0.7626155001,0.8550773119
602.6276667,0.1082056858,0.3140067364,-0.5209880841,0.6178489174
612.6646665,0.03060147621,0.1964684924,-0.4844441557,0.5236625429
622.7016666000001,0.1132947003,0.1178607179,-0.1565135908,0.2263257432
632.7396666000001,0.3726524091,0.08173413455,-0.04831437349,0.384557623
642.7766664,0.6300051807,0.08288764402,-0.1155515063,0.6458552778
652.8146664999999,0.7806665857,-0.005897794068,0.109938764,0.7883918022
662.8516665999999,0.6183756535,-0.005425192863,-0.5363013572,0.8185578948
672.8886666,0.4669204889,-0.1083202547,-0.4569493783,0.6622316474
682.9266665,0.5199731902,-0.2552511361,-0.3114133501,0.65765001
692.9636664999999,0.7287517892,-0.1628691488,-0.1851275253,0.7693359023
703.0006666,0.7429369882,0.108895036,-0.1591705656,0.7675602688
713.0386666,0.7432732031,0.2087033527,-0.3538717371,0.84925694
723.0756665,0.6920975677,0.1218108775,-0.5557491964,0.8959319742
733.1136665,0.6676704589,0.1277251169,-0.4768024296,0.8303240957
743.1506665999999,0.5764894531,0.2001534078,-0.1946280813,0.6405322522
753.1876666000001,0.5259086988,0.148371343,-0.08408296108,0.5528688445
763.2256665,0.6401620866,0.01379307009,-0.0932806313,0.6470695651
773.2626665,0.7727129106,-0.1718629704,-0.1907841218,0.8142608329
783.2996666,0.8070654488,-0.3974751551,-0.1531935418,0.9125839133
793.3376667,0.7984277225,-0.6198065402,-0.2106324953,1.032479067
803.3746665,0.5599792549,-0.9022304915,-0.2075311321,1.081973103
813.4126666,0.1913488531,-1.216951027,-0.007783228755,1.231927256
823.4496666,-0.1061110852,-1.32826491,0.2574271774,1.357135212
833.4866667,-0.491624902,-1.279852742,0.2986196423,1.40317204
843.5246665,-0.5140766752,-1.338409536,0.4782016683,1.51138736
853.5616666,-0.05342138646,-1.250123451,0.8867033565,1.533592295
863.5986666,-0.03287671461,-0.4598438962,1.42277141,1.4955988
873.6366665,-0.5931074958,1.112022888,1.702394033,2.11813995
883.6736665,-0.3635097758,1.006453091,1.277190943,1.66622444
893.7106666,-0.142549243,1.092046899,0.7044842362,1.307357929
903.7486666,-0.1507937074,1.311629581,0.3547640222,1.367102195
913.7856665,0.03151989106,1.254042108,-0.06453513443,1.256097089
923.8236665000001,0.3142002427,1.192490004,-0.3425778401,1.27988819
933.8606666,0.7742594992,1.043859264,-0.4712078136,1.382445926
943.8976666,1.170353469,0.8757709636,-0.3798421454,1.510292051
953.9356664999999,1.546189175,0.7310082297,-0.1419475919,1.716165236
963.9726665000001,1.716944829,0.4862441479,0.03083470702,1.78473631
974.0096666,1.628069783,0.1384128769,0.1345403391,1.639472612
984.0476667,1.531590578,-0.3258735144,0.1085909808,1.569635387
994.0846665,1.393478906,-0.6939094006,0.1267120868,1.561841756
1004.1226670000001,1.190497492,-0.9959631857,0.2108289617,1.566421335
1014.1596669999999,0.9839229646,-1.273014861,0.2109494144,1.622704808
1024.196667,0.8233198312,-1.576581833,0.1518691474,1.785085448
1034.2346659999998,0.5617425194,-1.648842893,0.1185061044,1.745932771
1044.271667,0.06018145298,-1.411814459,-0.01273991346,1.413153982
1054.308667,-0.03339967953,-1.272210284,-0.4245949799,1.341609274
1064.3466660000001,0.1540638998,-1.111829345,-0.8822559643,1.427681955
1074.383667,0.4084218007,-0.901223674,-0.9524207979,1.37336006
1084.420667,0.934580943,-0.5149856248,-0.8627291876,1.372207486
1094.458667,1.070029939,-0.4160476662,-0.5797970402,1.286166529
1104.495666,0.9654274175,-0.5879751022,-0.1659153289,1.142494077
1114.533667,0.686073693,-0.8475004068,0.201657604,1.108882249
1124.570667,0.4123327108,-1.040940042,0.3735856247,1.180313795
1134.607916,0.209664708,-1.149012228,0.5770330614,1.302749225
1144.645917,0.1417259093,-1.153271048,0.6394520885,1.326280255
1154.6829169999999,0.06201834664,-1.142357366,0.2944786441,1.181331578
1164.719917,0.05321565583,-1.001732122,0.07064722896,1.005629246
1174.7579159999998,0.03097401693,-0.9095892124,-0.08568392873,0.9141409414
1184.7949170000002,-0.0259645611,-0.8009659258,-0.25559466,0.8411594396
1194.832917,-0.05577454358,-0.6821247759,-0.2382810545,0.724695019
1204.869917,0.06642042294,-0.5147792181,-0.05511643946,0.5219646903
1214.906916,0.2975118873,-0.2997763677,0.1391023368,0.444666902
1224.944917,0.6301162778,-0.1438188471,0.3974130285,0.7587275529
1234.981917,0.8422963849,-0.04932945013,0.4793471378,0.9703969668
1245.018916,0.9977766265,-0.003056558892,0.5770886099,1.152648603
1255.056917,1.008585789,-0.1767051959,0.6234704787,1.198826701
1265.093917,0.8013512573,-0.5016927841,0.6488321918,1.146665906
1275.130917,0.3360905005,-0.9911306812,0.8597856992,1.3544476
1285.1689159999999,-0.1230923679,-1.311996202,1.200272575,1.782453371
1295.205917,-0.5131117384,-1.470830845,1.461995702,2.136365713
1305.243917,-0.8362038785,-1.660419503,1.412147019,2.334606831
1315.280917,-0.9370538767,-1.754438492,1.261518651,2.355324541
1325.317916,-1.005332106,-1.669000877,1.171657471,2.273551803
1335.355917,-0.9984470098,-1.567428601,1.159676526,2.190565794
1345.3929170000001,-1.021300267,-1.508548309,1.12650878,2.141913693
1355.4309170000001,-1.094497467,-1.503932371,1.111196092,2.166678111
1365.467916,-1.267942986,-1.439073739,1.033433386,2.178668678
1375.504917,-1.517575533,-1.399207569,0.810767321,2.217692713
1385.542917,-1.654422306,-1.398112678,0.6383703536,2.258173806
1395.579917,-1.881061555,-1.245144546,0.9253663158,2.438253541
1405.616916,-1.517634005,-0.9360442087,0.7240303087,1.924476974
1415.6549169999998,-1.423900215,-0.5365507409,0.3601148093,1.563669145
1425.6919169999999,-1.247538543,-0.3118586156,0.01374271095,1.286000418
1435.7289170000001,-1.101591455,-0.05999550238,-0.2270000213,1.126335742
1445.766916,-1.008270771,0.1863972482,-0.4721269959,1.128830271
1455.803917,-0.9277996346,0.2780701876,-0.8375119007,1.280453582
1465.8419170000002,-0.8680966392,0.3735416244,-1.071706336,1.428873539
1475.8789160000001,-0.7413737351,0.4916289219,-1.159281254,1.461255296
1485.915917,-0.5519941145,0.5772333285,-1.151841257,1.401654059
1495.953917,-0.389678624,0.6733285171,-1.124986165,1.367777246
1505.990917,-0.2085353914,0.6443827531,-1.004398452,1.211417514
1516.027916,-0.07236952633,0.4234838627,-0.8326113492,0.936919201
1526.065917,-0.08098335207,0.08746016666,-0.5612853402,0.5738020714
1536.102917,-0.1453296214,-0.2240927857,-0.04398158669,0.270689223
1546.140917,-0.189778693,-0.321026465,0.4302088916,0.5693449165
1556.177916,-0.01229786396,-0.2457799624,0.6810228682,0.7241209666
1566.214917,0.1694151798,-0.001200725734,0.7451738405,0.7641904196
1576.252917,0.3202116555,0.1963926248,0.737585324,0.8277304378
1586.289917,0.4211293352,0.3335152406,0.6829980576,0.8689468795
1596.326916,0.40459721,0.4688369139,0.6044366223,0.865361534
1606.364917,0.2720118874,0.5060060558,0.5274305463,0.7798817709
1616.401917,0.1414321598,0.5455516523,0.4827478784,0.7420749122
1626.438917,0.04176724613,0.5863324732,0.3881498694,0.7044079735
1636.4769159999998,-0.02153354108,0.6776360147,0.2060640657,0.7086019058
1646.513917,-0.06339755863,0.7249043213,0.1158807045,0.7368404598
1656.551917,-0.04121000648,0.7826350509,0.1156678659,0.7922089009
1666.588916,-0.03172172964,0.8333106762,0.1077583373,0.8408476738
1676.625917,0.01948350728,0.8361987622,0.1285253084,0.8462427145
1686.6639169999999,0.07434997827,0.8069793485,0.2386698943,0.8448117581
1696.7009170000001,0.09896003187,0.774339606,0.2852833128,0.83113265
1706.737916,0.1167949167,0.6965204747,0.1753936654,0.7276982631
1716.7759170000002,0.1326563662,0.5907981379,-0.004398860335,0.6055241541
1726.812917,0.1629659933,0.5374399562,-0.1031881535,0.5710056187
1736.849917,0.2090186638,0.5062878916,-0.1439274591,0.5663314793
1746.887916,0.3092709303,0.5376872934,-0.2315930092,0.6621113621
1756.924917,0.3769632688,0.5588379881,-0.2779275155,0.7291398404
1766.962917,0.4051825163,0.4835928011,-0.3291362607,0.711593667
1776.9999169999999,0.4116714638,0.4738665426,-0.4047875369,0.7469108677
1787.036916,0.5040180025,0.3664394501,-0.4907749361,0.7932036657
1797.074917,0.5173809367,0.3281700084,-0.530341875,0.8103339388
1807.1119170000002,0.4663397142,0.2091066644,-0.4982055777,0.7137276258
1817.148917,0.4690151078,0.07312674075,-0.4926934075,0.6841560387
1827.186916,0.5592768216,-0.02348826528,-0.4441316968,0.7145594628
1837.223917,0.5793614227,-0.08341140836,-0.3668069476,0.6907709157
1847.261917,0.6466465026,-0.188269819,-0.2748448634,0.7274179837
1857.298916,0.7838876706,-0.2545968327,-0.2435201597,0.8594192781
1867.335916,0.9325604376,-0.2943827498,-0.2887144589,1.019650044
1877.373917,1.005938901,-0.3314359707,-0.4062101644,1.134358661
1887.410917,1.065780475,-0.3589544293,-0.4949972105,1.228722321
1897.4479159999999,1.08872378,-0.3523350888,-0.5954874587,1.289986356
1907.485917,1.082689161,-0.3675597766,-0.6680326939,1.32422947
1917.522917,0.9998399627,-0.4170254669,-0.7039579868,1.291954735
1927.560917,0.8718096212,-0.4684979215,-0.6819379574,1.201907524
1937.5979160000002,0.7620775563,-0.5546203914,-0.6369202441,1.137555879
1947.634917,0.6551045001,-0.6529533094,-0.5920077807,1.098172638
1957.672917,0.5436814204,-0.7264165574,-0.5267815053,1.049175513
1967.7099170000001,0.348470664,-0.7592764476,-0.5397260714,0.9946038205
1977.746916,0.1480313274,-0.6998985574,-0.6728443676,0.9820849289
1987.784917,-0.05476619124,-0.5346734923,-0.8550816143,1.009970121
1997.821917,-0.2212662417,-0.3842945078,-1.052209965,1.141834852
2007.858917,-0.4003351745,-0.2909706071,-1.213565635,1.31060051
2017.8969160000001,-0.5663624775,-0.2373721048,-1.314431859,1.450807735
2027.9339169999998,-0.6422420874,-0.280258508,-1.356342947,1.526658416
2037.971917,-0.7515844354,-0.2646976054,-1.192529107,1.434248813
2048.008917,-0.8273886162,-0.3294324222,-0.7402879071,1.158069009
2058.045916,-0.8734678915,-0.490031755,-0.2830087459,1.040755124
2068.083917,-0.9455742931,-0.6239730468,0.09993300855,1.13729491
2078.120917,-1.082426329,-0.6789655253,0.4542532271,1.356092525
2088.157916,-1.277826243,-0.6790853932,0.627869339,1.577408249
2098.195917,-1.469369041,-0.6169528797,0.6320074135,1.714383156
2108.232917,-1.551673571,-0.5281322122,0.5208717245,1.719861
2118.270917,-1.568253059,-0.3946358934,0.4141641319,1.669337315
2128.3079159999998,-1.520620471,-0.1473629907,0.3529917312,1.567994142
2138.344833,-1.348335477,0.08794066161,0.3916149294,1.406806445
2148.3828329999997,-1.149958746,0.2210095489,0.6656148702,1.346957124
2158.419833,-1.040486005,0.269604004,1.015118152,1.478432383
2168.456833,-1.064510168,0.1843247026,1.234613857,1.640557488
2178.4948329999997,-1.101292955,0.05460276157,1.32358626,1.722703753
2188.531833,-1.176823486,-0.006476960778,1.337216704,1.781320854
2198.568833,-1.231875899,0.01894000858,1.253993869,1.757946978
2208.6068330000003,-1.222632912,0.1389704821,1.061048616,1.624797895
2218.6438329999996,-1.168448811,0.3043624851,0.7426560295,1.417549691
2228.681833,-1.075376049,0.4524166167,0.4207995522,1.240236552
2238.718833,-1.028646563,0.6356288865,0.1759754634,1.221926838
2248.755833,-1.021755619,0.7233806831,0.06676467776,1.253683246
2258.7938329999997,-1.041466583,0.6776917094,0.1052568984,1.246995474
2268.830833,-1.051126476,0.5527656546,0.2378986466,1.211202916
2278.8678330000002,-0.9797740728,0.391077278,0.3542167228,1.112819913
2288.905833,-0.9690590501,0.2028983831,0.3893508875,1.063878428
2298.942833,-1.001395907,0.03718127489,0.3521228349,1.06215192
2308.980833,-1.004507795,-0.04032152206,0.2432681447,1.034331246
2319.0178330000003,-1.026695055,-0.05042200238,0.09477927268,1.032292703
2329.0548329999997,-1.043635608,-0.03175213516,-0.08510680854,1.047581333
2339.092833,-1.003947924,0.03296572477,-0.2778362989,1.042204962
2349.129833,-1.006689683,0.1080974758,-0.4449748653,1.105943857
2359.166833,-0.9702507126,0.1487382558,-0.4658500099,1.086520016
2369.204833,-0.8596596918,0.2031892821,-0.3553487438,0.9521414809
2379.241833,-0.7226056346,0.2506172177,-0.1558259583,0.7805444397
2389.2788330000003,-0.5689563024,0.2530005428,-0.008145756125,0.6227253825
2399.316833,-0.4431417632,0.295489043,0.1289275968,0.5480061332
2409.353833,-0.3009895188,0.2844340047,0.3504177868,0.5424850401
2419.391833,-0.104421916,0.2774837118,0.602108261,0.6711449209
2429.428833,0.09421296984,0.2802281025,0.8419499373,0.8923472251
2439.4658329999997,0.2393560651,0.2659255207,1.038209977,1.098129165
2449.503833,0.313301416,0.242234357,1.150060195,1.216336185
2459.540833,0.303658188,0.2098676795,1.14480004,1.202838256
2469.577833,0.2427199683,0.120227817,1.113040888,1.145525089
2479.615833,0.1915433827,-0.02747606635,1.035558264,1.053482188
2489.652833,0.04237535655,-0.1534227526,0.8782020897,0.8925094521
2499.6908329999997,-0.115388369,-0.2125065279,0.6549612433,0.6981745701
2509.727833,-0.2289000741,-0.2448427999,0.3438595498,0.4801902025
2519.764833,-0.3376676407,-0.2634132645,0.07565010667,0.4348895517
2529.802833,-0.4306152731,-0.2889501017,-0.1533952707,0.5407881136
2539.839833,-0.4981137764,-0.2853543565,-0.3433631212,0.6689115607
2549.876833,-0.5463518438,-0.2799564993,-0.462027685,0.7683394826
2559.9148330000003,-0.6385527867,-0.3190471825,-0.5869160253,0.9241272568
2569.951833,-0.7866396627,-0.2975998878,-0.751857208,1.128120966
2579.988833,-0.9742361748,-0.2791826203,-0.8832716256,1.344339178
2590.026833,-1.033374622,-0.297406345,-0.9351779437,1.425086464
2600.063833,-0.9833879444,-0.3458924805,-0.8441245168,1.341357394
2610.1018329999997,-0.8786315677,-0.3844428809,-0.579915154,1.120754811
2620.138833,-0.7081349453,-0.4295035712,-0.3117483956,0.8849381225
2630.1758330000002,-0.5858953938,-0.4972773322,-0.009887056947,0.7685414182
2640.213833,-0.6490967783,-0.5986110413,0.2675112855,0.9226180652
2650.250833,-0.7833737004,-0.6615245967,0.2751629519,1.06160435
2660.287833,-0.9390543553,-0.6491049644,0.1115531802,1.146998016
2670.3258330000003,-1.079407119,-0.5760638854,-0.1366272104,1.231111824
2680.3628329999997,-0.9580849957,-0.3078636517,-0.4200247961,1.090471328
2690.399833,-0.6942969248,0.1481438863,-0.5072863036,0.8725446835
2700.437833,-0.4342618892,0.5968966377,-0.4582878059,0.8688479139
2710.474833,-0.1898243013,0.9438316767,-0.2649455273,0.9985227247
2720.512833,-0.02270152241,1.174992869,0.1736354077,1.187970057
2730.549833,0.09475851506,1.271143314,0.6883722335,1.448668641
2740.586833,0.2101234952,1.266966501,1.201606325,1.758753467
2750.624833,0.3636552984,1.192735222,1.745509647,2.145149508
2760.661833,0.4748143762,1.09917904,2.239812793,2.539764675
2770.698833,0.5839777994,0.9098321642,2.488125331,2.712856852
2780.7368330000004,0.6668404466,0.7421041985,2.423242287,2.620591156
2790.7738329999997,0.6481018746,0.6159946673,2.226888692,2.39969138
2800.811833,0.5789328218,0.4748224162,1.881617625,2.025118373
2810.848833,0.6052119631,0.3780315551,1.474939098,1.638485496
2820.8858330000003,0.5943174309,0.3263439229,1.019036956,1.223989331
2830.923833,0.5696673238,0.2508746414,0.5161460048,0.8086195915
2840.960833,0.5203402126,0.1392925175,0.09347943664,0.5467126735
2850.997833,0.390055477,-0.00302944243,-0.3070255995,0.4964042419
2861.035833,0.2451836926,-0.1592806394,-0.6476376057,0.710577113
2871.0728329999997,0.1181593645,-0.3294552264,-0.8350946617,0.9054752761
2881.109833,0.04337523043,-0.5490213901,-0.9236747164,1.07539801
2891.147833,0.0785819006,-0.7275424388,-1.005083161,1.243255917
2901.184833,0.1593144071,-0.8149781933,-1.060324146,1.346795393
2911.2228330000003,0.2400018901,-0.8516577771,-1.016342559,1.347543719
2921.259833,0.3238673347,-0.8923070356,-0.9857633758,1.368514278
2931.2968330000003,0.3698276192,-0.9055655971,-1.035936579,1.424775812
2941.334833,0.4359017408,-0.8864010555,-1.141092905,1.50924159
2951.371833,0.447609036,-0.8766362053,-1.213511256,1.562515425
2961.408833,0.4064668572,-0.8819416764,-1.253089889,1.585329839
2971.446833,0.4106259817,-0.8572731507,-1.276352452,1.591416518
2981.483833,0.4807691807,-0.816494084,-1.338205469,1.639693712
2991.5218330000002,0.5183521593,-0.7367687604,-1.31038851,1.590168297
3001.5588329999996,0.5683698267,-0.6593557182,-1.103415787,1.405461
3011.595833,0.6169531721,-0.5667086327,-0.9302341229,1.251848798
3021.6338330000003,0.6696102726,-0.4960096559,-0.7908008337,1.148812193
3031.670833,0.6696102726,-0.4541511932,-0.6245943135,1.022129776
3041.707833,0.6261350548,-0.4183562931,-0.4985213274,0.903100553
3051.745833,0.6047061789,-0.3525913431,-0.4297493005,0.8213858285
3061.782833,0.6507073939,-0.2680262791,-0.3504785979,0.7861891924
3071.819833,0.6672193462,-0.1941873474,-0.2597169471,0.7418512482
3081.857833,0.6417202234,-0.1306702133,-0.2374302846,0.696600811
3091.894833,0.6533029729,-0.03978050843,-0.239042362,0.6967987615
3101.932833,0.7087322384,0.0363641265,-0.2095607007,0.7399590683
3111.9698329999997,0.7112173051,0.07206459403,-0.09045584142,0.7205592411
3122.006833,0.6636262321,0.1029032479,-0.04779981852,0.6732560264
3132.044833,0.6349216658,0.1132776703,-0.03226785958,0.6457542621
3142.081541,0.6058592498,0.09756035462,0.01005136371,0.6137462695
3152.118542,0.5444190466,0.09845877931,0.1029688829,0.5627511177
3162.156542,0.4955076724,0.09434438601,0.1789195365,0.5352017537
3172.193542,0.5050924283,0.06169865012,0.2416636688,0.5633173292
3182.230541,0.4586146653,0.05669898838,0.3703743339,0.5922156142
3192.268542,0.4086045992,0.05950989112,0.5217341888,0.6653613375
3202.305542,0.4592561048,0.09280422941,0.6478270555,0.7995052774
3212.343541,0.5190661043,0.1707436672,0.7234812552,0.9066466495
3222.380541,0.5253968847,0.2244925891,0.7377665877,0.9331336169
3232.4175419999997,0.5326445085,0.2361194851,0.7020155418,0.9122984186
3242.455542,0.4580708742,0.2973831023,0.6696681601,0.8641302448
3252.492541,0.3710882789,0.3178727692,0.5749783498,0.7545526561
3262.5295419999998,0.331116128,0.330001941,0.4464121109,0.6463922525
3272.567542,0.2654097962,0.2955565783,0.3963061506,0.5611190746
3282.604542,0.1758345455,0.2401743829,0.3159250617,0.434062399
3292.642541,0.1379428339,0.1966167194,0.272252208,0.3630531979
3302.679542,0.1236785513,0.1514570649,0.3128324693,0.3689170373
3312.716542,0.1051984262,0.1271063353,0.319904092,0.3599463257
3322.754542,0.08556698442,0.12148146,0.2263825554,0.2707923842
3332.791541,0.06558529437,0.09870246202,0.1029753149,0.1569952939
3342.8285419999997,0.004196546674,0.07807187721,-0.03117150664,0.08416942344
3352.866542,-0.07014787674,0.03159864575,-0.1616030073,0.178982488
3362.903542,-0.1693189931,-0.01083167464,-0.33033494,0.3713588819
3372.9415409999997,-0.2106845355,-0.0353987512,-0.4665879285,0.5131718427
3382.978542,-0.2453708035,-0.04666472778,-0.5315393847,0.5872976635
3393.015542,-0.2745793998,-0.07549544781,-0.5600895846,0.6283261511
3403.0535419999997,-0.2768276542,-0.1411197723,-0.526160531,0.6110591172
3413.090541,-0.2711675495,-0.1831985289,-0.5406692272,0.6319942675
3423.127542,-0.2249043792,-0.2248387443,-0.5001322353,0.5926775628
3433.1655419999997,-0.07156641126,-0.2304143567,-0.4226262224,0.4866471523
3443.2025409999997,0.057799142,-0.2188092417,-0.395895676,0.4560171174
3453.239542,0.1474311107,-0.197315754,-0.3661543983,0.4412918338
3463.2775420000003,0.1872290146,-0.19891219,-0.401880886,0.4859310751
3473.3145419999996,0.186121552,-0.231510125,-0.4568277562,0.544912625
3483.3525409999997,0.1566977781,-0.2892877784,-0.4648168069,0.5694701717
3493.389542,0.1279704076,-0.3368285653,-0.5005503112,0.6167499669
3503.426542,0.1408594251,-0.3735726146,-0.4741460395,0.6198486451
3513.4645419999997,0.1750668061,-0.3826501246,-0.3934842843,0.5761070963
3523.501541,0.1892445499,-0.3679322442,-0.3283170658,0.5281853195
3533.5385420000002,0.1568650085,-0.3899778552,-0.287731542,0.5093906151
3543.576542,0.09159195542,-0.4248562042,-0.2330852187,0.4931740055
3553.613542,0.07280017376,-0.4266914991,-0.2347721404,0.4924260945
3563.650541,0.09561074674,-0.3640416531,-0.257451151,0.4560140735
3573.6885420000003,0.08312284827,-0.3137193458,-0.2953791153,0.4388371652
3583.7255419999997,0.051419245,-0.2696516588,-0.3331345868,0.4316649265
3593.763542,0.03921318233,-0.2699801262,-0.3139726764,0.4159396395
3603.800541,-0.01473439872,-0.1998382428,-0.3198397726,0.3774253647
3613.837542,-0.05514333665,-0.1673685081,-0.3545535225,0.3959308088
3623.8755419999998,-0.07645643771,-0.1558106093,-0.3838217604,0.4212382658
3633.912541,-0.1279218757,-0.1444364592,-0.3888293159,0.4340669694
3643.949541,-0.1778056419,-0.1019181383,-0.3931504083,0.4433614741
3653.987542,-0.2123737961,-0.07247419149,-0.4147915381,0.4716006338
3664.024542,-0.2296938336,-0.06416866019,-0.3755666614,0.444890089
3674.0625410000002,-0.2667219114,-0.0107283251,-0.2859165663,0.3911572035
3684.099542,-0.3215255249,0.02212688729,-0.211790244,0.3856466903
3694.1365419999997,-0.3897695482,0.03174321815,-0.2109687102,0.4443374048
3704.174542,-0.4652302051,0.03819138139,-0.2023475754,0.5087654338
3714.211541,-0.5483781964,0.02805961847,-0.1596722567,0.5718402032
3724.2485420000003,-0.5966697657,-0.01528272137,-0.08308425665,0.602620415
3734.286542,-0.6115421587,-0.03892886147,0.05470070243,0.6152165757
3744.323542,-0.5819540781,-0.07377753586,0.2057991868,0.6216646838
3754.361541,-0.5716688257,-0.1163360564,0.2954364181,0.6539281317
3764.398542,-0.5371234757,-0.1160049579,0.3654615033,0.6599400645
3774.435542,-0.4927144575,-0.1085452263,0.4325179571,0.6645459999
3784.473542,-0.4628936577,-0.08787254155,0.4369057077,0.6425563939
3794.510541,-0.4103365445,-0.08025975913,0.432268281,0.6013930291
3804.547542,-0.3370756102,-0.05454428941,0.4370957422,0.5546600169
3814.5855420000003,-0.304351083,-0.04743188247,0.4651576996,0.5578987818
3824.622542,-0.3261249447,-0.08671713173,0.4803721547,0.5870560003
3834.659541,-0.3510545486,-0.1250641952,0.5475870681,0.6623684369
3844.697542,-0.3340642941,-0.1360880971,0.61582349,0.7136928566
3854.734542,-0.2839396226,-0.1453918943,0.6695792824,0.7416851944
3864.772541,-0.2504087645,-0.1285203382,0.6973868859,0.752044211
3874.809542,-0.2298113626,-0.08980636194,0.7244232416,0.7652891467
3884.846542,-0.2058196521,-0.06717851445,0.6827127135,0.7162201695
3894.884542,-0.1891094792,-0.04285702094,0.5441939288,0.5777076696
3904.921541,-0.1681659222,0.01454714164,0.4534773016,0.483872979
3914.958542,-0.09287717342,0.0818113178,0.4186577171,0.4365702064
3924.9965420000003,-0.04498263001,0.1012012696,0.4191371888,0.4335217607
3935.033542,-0.0256879878,0.10166912,0.3964575934,0.4100915825
3945.070541,-0.03626443148,0.08648068495,0.3132932299,0.3270270108
3955.108542,-0.04317700982,0.1282249808,0.2212568861,0.259346312
3965.145542,-0.08614351988,0.1353167763,0.1360331333,0.2103243906
3975.1835419999998,-0.1062819153,0.1235375603,0.06418313205,0.1751480767
3985.2205409999997,-0.1707123846,0.1602952044,0.05710156918,0.2410349768
3995.257542,-0.1865215015,0.2015457029,0.0523355037,0.2795531181
4005.295542,-0.1749615562,0.2482500456,0.0878415513,0.3161578236
4015.3325420000006,-0.2010325366,0.2590638862,0.09980846286,0.3427680078
4025.369541,-0.230738731,0.2211056625,0.1140937954,0.3393309154
4035.407542,-0.2815346628,0.1724205755,0.2303112996,0.4025343662
4045.444542,-0.3848438537,0.1208183858,0.3463025165,0.5316270375
4055.482541,-0.3853864753,0.09888650313,0.3933696789,0.5595006525
4065.5195419999995,-0.3346004838,0.1154158509,0.426808151,0.5544758788
4075.5565420000003,-0.2729807711,0.1477568007,0.4406818396,0.5390278817
4085.594542,-0.182415002,0.1378728866,0.4037268519,0.4639822591
4095.631541,-0.1293591213,0.08790228926,0.3658099973,0.3978411101
4105.668542,-0.1222559237,0.04515132219,0.3530624825,0.3763486008
4115.706542,-0.07728557289,-0.06301836669,0.3425298929,0.3567507559
4125.743542,-0.008477293253,-0.1199042467,0.339278841,0.3599430856
4135.780541,0.421677804,0.007970778197,0.5041738307,0.6573180017
4145.818333,1.283847413,0.3662199602,0.6232979858,1.473391197
4155.8553329999995,2.320230135,0.844795631,0.518430512,2.523077036
4165.893333,3.001971041,1.24604838,0.09329817295,3.251641316
4175.930333,2.884263082,1.274574314,-0.5532752395,3.201503818
4185.967333,2.111678663,0.8184770941,-1.122829712,2.527812907
4196.005332999999,1.144628717,0.2235432936,-1.193600902,1.668780877
4206.042333,0.4620247614,-0.1742821097,-0.9723884547,1.0905872
4216.079333,0.04587316096,-0.4067063738,-0.4383324283,0.5997080449
4226.117333,-0.3129260248,-0.57877904,-0.001342520714,0.6579587194
4236.154333,-0.6787570721,-0.7217333031,0.2200394958,1.014902706
4246.192333,-0.8812172064,-0.8270967671,0.5725997025,1.337349336
4256.229333,-0.9985076746,-0.9309979885,0.8299333245,1.597674608
4266.266333,-1.089133378,-0.9613024262,0.8955946326,1.706576578
4276.304333,-1.175793207,-0.9990864028,0.7686661988,1.723807133
4286.341333,-1.224711598,-0.9939128595,0.4921882081,1.652280394
4296.378333,-1.205332755,-0.9247080655,0.2412759984,1.538221754
4306.416332999999,-1.136939043,-0.8029697666,0.04672626972,1.392685958
4316.453333,-0.9408772248,-0.6318964626,-0.07316036224,1.135735678
4326.490333,-0.7042871851,-0.4159225358,-0.1655528015,0.83451766
4336.528333,-0.4991651058,-0.2462276398,-0.2487347066,0.6096415404
4346.5653330000005,-0.3894105291,-0.1378334179,-0.279033224,0.498495889
4356.603333,-0.3095135897,-0.03685397699,-0.2441317785,0.3959257546
4366.640333,-0.2891313654,0.007777235359,-0.1891311139,0.345583579
4376.677333,-0.2847675884,0.02482435405,-0.1154222828,0.3082711977
4386.715333,-0.3225177974,0.02314510681,-0.04768345892,0.3268442103
4396.752333,-0.4279074275,0.03703699484,-0.05607362866,0.433152118
4406.789333,-0.4837582773,0.08523325458,-0.1104661828,0.5034774633
4416.827332999999,-0.4770468432,0.1242172261,-0.208041594,0.5350559921
4426.864333,-0.4748096985,0.1356202468,-0.2766095531,0.5659946519
4436.902333,-0.4595993364,0.1452318998,-0.2993721789,0.5674042265
4446.939333,-0.4098371923,0.1415636491,-0.3216623497,0.5398828189
4456.9763330000005,-0.3029419041,0.1611365457,-0.3627098036,0.4992966906
4467.014333,-0.1733968413,0.1775029754,-0.4145903939,0.4831759157
4477.051333,-0.06381241858,0.1832271072,-0.4009500092,0.4454268823
4487.088333,0.02040385902,0.1530475806,-0.3657129335,0.3969708165
4497.126333,0.1161824208,0.09312078305,-0.3093627316,0.3433294844
4507.163333,0.2025990057,0.07960625969,-0.2328735495,0.3187688876
4517.201333,0.3208583575,0.07622474179,-0.1409781235,0.3586573967
4527.238332999999,0.5602006817,0.09702767327,0.4188635391,0.7061769166
4537.2753330000005,0.7577915472,0.02934110887,1.007412107,1.260947296
4547.313333,0.6570147854,0.03788608365,0.9328905129,1.14166041
4557.350332999999,0.5725663733,0.01526525281,0.8600453156,1.033316614
4567.387333,0.5408867437,-0.03825906292,0.8877681345,1.040266546
4577.425333,0.5291689235,0.03918394625,0.9708447897,1.106388149
4587.462333,0.6077256811,0.1185745168,1.054552944,1.222895062
4597.499333,0.6971149904,0.213848537,0.7508444703,1.046646036
4607.537333,0.8102141744,0.4379127444,-0.260305177,0.9570649744
4617.5743330000005,0.5930292892,0.4869657674,-0.5717506868,0.9569316822
4627.612333,0.5443319231,0.3189070686,-0.8577783501,1.064792308
4637.649332999999,0.5036382258,0.2964761992,-0.9418127793,1.108404669
4647.686333000001,0.4650460178,0.2124234974,-0.9247810096,1.056698375
4657.724333,0.391911968,0.05984888345,-0.7622886407,0.8592210724
4667.7613329999995,0.3704901087,-0.08723680303,-0.5869493544,0.6995589504
4677.798333,0.3615561479,-0.1814634407,-0.3893485487,0.561466046
4687.836333,0.3193228787,-0.2289058482,-0.2671434957,0.4751111822
4697.8733330000005,0.2589667493,-0.2503136741,-0.2752173311,0.4532827948
4707.910333,0.1519545168,-0.2494555221,-0.278245604,0.4034090342
4717.948333,0.05775353372,-0.2385384051,-0.3252168721,0.4074334979
4727.9853330000005,-0.03342443883,-0.2331885682,-0.3270990908,0.4030978996
4738.023333,-0.1459535193,-0.2078119446,-0.2627627617,0.3654209943
4748.060332999999,-0.177341373,-0.2077211666,-0.1836130965,0.3291076037
4758.097333000001,-0.2010740519,-0.2146890742,-0.09610074341,0.3094471293
4768.135333,-0.200613876,-0.2201683538,0.03974995673,0.3004997343
4778.1723329999995,-0.2069733077,-0.2273108739,0.1664889407,0.3496094262
4788.209333,-0.2292167008,-0.2288243526,0.3200029099,0.4553051094
4798.247333,-0.2102103263,-0.2406012297,0.4485276335,0.5506853649
4808.284333,-0.1355893296,-0.2307724987,0.5154519403,0.5808021309
4818.322333,-0.02781403542,-0.1990869487,0.5180785096,0.5557108743
4828.359332999999,0.1233856058,-0.1548522507,0.5259430146,0.5619780084
4838.396333000001,0.328396588,-0.04705956101,0.5868037587,0.6740901813
4848.434333,0.6295539218,0.1814540121,0.607792924,0.893686711
4858.4713329999995,0.9173281485,0.4787041634,0.7023733914,1.250590656
4868.508333000001,0.9756213802,0.5805815173,0.9441329545,1.476583561
4878.546333,0.9401603562,0.5558516689,1.181376128,1.608888476
4888.583333,0.9072305918,0.5970960277,1.479018701,1.834962487
4898.621333,0.9740537417,0.6935876575,1.822319257,2.179608222
4908.658333,1.158165898,0.8021828775,2.090687159,2.521074853
4918.695333,1.32254604,0.9610539195,2.380911369,2.888164056
4928.733333,1.464318216,1.079885056,2.506500206,3.097244397
4938.7703329999995,1.342808689,1.159991179,2.571995453,3.124720039
4948.807333000001,1.094053225,1.27884205,2.584632456,3.084268857
4958.845333,0.8504570514,1.405108872,2.550150256,3.033294325
4968.882333,0.7753676927,1.416880486,2.587950751,3.050612145
4978.919333000001,0.6908382967,1.520259259,2.592717986,3.083931309
4988.957333,0.5354786539,1.494294405,2.562472678,3.014285883
4998.994333,0.2637018245,1.351823195,2.474524707,2.832002318
5009.032333,-0.03059497118,1.314216536,2.432217763,2.764739482
5019.069333,-0.2890711391,1.254832944,2.50163123,2.813596746
5029.106333,-0.6391667444,0.8869660427,2.897225774,3.096636897
5039.144333,-0.8330165613,0.4658101027,3.451962233,3.581471611
5049.1813329999995,-1.18725141,-0.07897512585,3.675076779,3.86289947
5059.218333,-1.709583769,-0.7936414111,3.424948096,3.909323831
5069.256333,-1.827960066,-1.550853207,2.779789125,3.670669047
5079.293333,-1.986928318,-2.345297148,2.160084838,3.75689624
5089.330333000001,-2.185809664,-2.722486997,1.672984293,3.871508204
5099.368333,-2.117165691,-2.872227173,0.9613214296,3.695432097
5109.405333,-1.951361459,-3.113072231,0.1656574667,3.677835322
5119.443333,-1.796469886,-3.297848631,-0.542818079,3.794438181
5129.480333,-1.669888777,-3.400151516,-1.239316773,3.985657402
5139.517416000001,-1.554847147,-3.373815072,-1.970784155,4.205254806
5149.5554170000005,-1.529217632,-3.529807384,-2.14751274,4.405662005
5159.592417,-1.201967098,-3.630542046,-2.377857953,4.503306441
5169.629417,-0.754448694,-3.478520871,-2.661027498,4.444138569
5179.667416,-1.206532604,-3.077842465,-2.958357244,4.436294935
5189.704417,-1.030380555,-2.868332635,-2.924882519,4.224210452
5199.742417,-0.8524076825,-2.666344078,-2.928626491,4.051276679
5209.779416,-0.8045920765,-2.43302117,-2.919899522,3.88494191
5219.816417,-0.5997664511,-2.253748755,-2.776926913,3.626351655
5229.8544170000005,-0.4884044749,-1.954588245,-2.638948996,3.320091255
5239.891417,-0.3538080025,-1.710634514,-2.533031362,3.076962532
5249.928416000001,-0.1980405164,-1.524645109,-2.409771472,2.858454355
5259.966417000001,-0.0653829807,-1.3290575,-2.375655892,2.722941367
5270.003417,0.02635047734,-1.116175288,-2.370087588,2.619896334
5280.0414169999995,0.08825787306,-0.8733427611,-2.378574822,2.53537674
5290.078416,0.1473393095,-0.641027036,-2.30325099,2.395326628
5300.115417,0.3328328705,-0.4407268631,-2.166868193,2.236143031
5310.153417,0.5231398594,-0.2575420752,-1.808483575,1.900162118
5320.190417,0.6715620732,-0.1666827759,-1.354042652,1.520595367
5330.227416,0.8589594877,-0.08353127629,-0.9569781178,1.288641142
5340.2654170000005,1.044254828,0.02159347504,-0.5660397112,1.187996372
5350.302417,1.149781283,0.08701533973,-0.2652489978,1.183184558
5360.339416999999,1.259065744,0.2167039517,-0.02209311962,1.277769641
5370.377416,1.301140553,0.3503075668,0.1471486902,1.35548326
5380.414417,1.287767386,0.4491217107,0.2682842875,1.3899754
5390.4524169999995,1.213573821,0.5240420848,0.3612327969,1.37035421
5400.489416,1.015345024,0.4591935396,0.4456794548,1.200172655
5410.526416,0.7564724153,0.3632892627,0.4925144827,0.9730365457
5420.564417,0.5058502275,0.2484666118,0.5054777598,0.7570520956
5430.601417,0.3759870762,0.1510850358,0.6802486968,0.7917899084
5440.638416,0.2918240082,0.08171016097,0.7795075214,0.8363430983
5450.676417000001,0.219860571,-0.009461087286,0.8314372283,0.8600674668
5460.713417,0.1058071214,-0.0225793156,0.8381129944,0.8450670765
5470.7514169999995,0.09031726241,-0.04557846129,0.8249666995,0.8311465931
5480.788416,0.1242942631,-0.04897072345,0.6937487483,0.7064945303
5490.825417,0.1486917704,0.002650542855,0.5505849355,0.5703157364
5500.863417,0.1328943479,-0.02194576979,0.3814068604,0.4044919253
5510.900417,0.03420211852,-0.09967309982,0.2033357549,0.2290195209
5520.937416,-0.01279487729,-0.1542983732,0.0449849689,0.1612307175
5530.975417,-0.07574424684,-0.1245179191,-0.1218688381,0.1899839909
5541.012417,-0.1512750703,-0.06387030602,-0.2951990211,0.3377958332
5551.0504169999995,-0.2221345532,-0.0379677254,-0.340826599,0.4085928028
5561.087416,-0.279484629,-0.002174871862,-0.3235381365,0.4275433472
5571.124417,-0.32584077,0.03625712246,-0.2934343314,0.4399891967
5581.162417,-0.3434274405,0.04697857708,-0.2222339559,0.4117491041
5591.199417000001,-0.4128572792,-0.01198883861,-0.1615673393,0.4435074637
5601.236416,-0.4773777956,-0.09204657644,-0.1388485676,0.5056095892
5611.274417,-0.4742945588,-0.08675718516,-0.08185049415,0.4890620012
5621.311417,-0.4028450918,-0.03800076216,0.01947473645,0.4051018283
5631.348416,-0.355432359,-0.009554350376,0.0959405297,0.368277114
5641.386417,-0.3339347783,0.0409518519,0.1371289015,0.3633095456
5651.423417,-0.2742770988,0.06602061957,0.1789838558,0.3340985929
5661.4614169999995,-0.2406023991,0.06133933872,0.1540384644,0.2921983529
5671.498416,-0.232744326,0.04311064392,0.1402162313,0.2751164125
5681.535417,-0.1986369324,0.03220558673,0.1590957212,0.2565253969
5691.573417,-0.1513949382,0.03078646749,0.1453109103,0.2120931271
5701.610417000001,-0.1061076683,0.01168887645,0.1440233535,0.1792712845
5711.647416,-0.02154289663,0.08039979994,0.07959814668,0.1151698276
5721.685417,0.03452254593,0.1433336744,0.03728827894,0.1520748636
5731.722417,0.08350291729,0.1522182262,0.005727932453,0.1737122183
5741.760417,0.1079390162,0.1259311911,0.03161998808,0.1688470307
5751.797415999999,0.08507903427,0.03643809378,0.0789941293,0.121680932
5761.834417,0.007696982324,-0.04599682957,0.07058992624,0.08460431168
5771.872417,-0.06312186241,-0.1152398497,0.05135317147,0.1410735294
5781.909417,-0.106530422,-0.1230093375,0.01622485399,0.1635337085
5791.946416,-0.09833554924,-0.08484748453,-0.01940807819,0.1313226918
5801.984417,-0.06326687336,-0.04723029971,-0.03948683202,0.08827575193
5812.021417000001,-0.04996972024,-0.04110271007,-6.314992905e-05,0.06470247062
5822.059416,-0.04637514442,-0.04919905722,0.04082116663,0.07897828117
5832.096417,-0.03953974932,-0.0466944024,0.05449838877,0.0819379849
5842.133417,0.02733456373,-0.02230829716,-0.02084181547,0.04097828411
5852.1714170000005,0.07284929037,0.01284808695,-0.1142107397,0.1360741912
5862.2084159999995,0.1197924918,0.06188049853,-0.2408169919,0.275993226
5872.245417,0.1253444231,0.1086050141,-0.3745281959,0.409606693
5882.283417,0.1606864563,0.1362284303,-0.4070018774,0.4582890471
5892.320417,0.1890018904,0.1694602033,-0.3888386714,0.4643640679
5902.357416,0.2110748371,0.20962502,-0.3242976898,0.4400729797
5912.395417,0.1860601562,0.1840104148,-0.203904689,0.3317458917
5922.432417,0.1206833151,0.134116416,-0.03109081507,0.1830800764
5932.470417,0.07605736524,0.09208633751,0.1417341685,0.1853461381
5942.5074159999995,0.07239466935,0.0878713721,0.1928049195,0.2239109268
5952.544417,0.08092137158,0.06690851927,0.2453965312,0.2669166084
5962.5824170000005,0.08007615656,0.06044734597,0.3151561528,0.3307407945
5972.619417,0.03496459544,0.02037286878,0.3603966451,0.3626614378
5982.656416,0.008636337519,-0.04121614605,0.4264467931,0.4285209731
5992.694417,0.0004280161858,-0.06984265208,0.4942300558,0.4991407891
6002.731417,-0.01728670835,-0.06127355754,0.4693045449,0.4736032464
6012.769416,-0.0374920544,-0.02302136511,0.3810045719,0.3835363362
6022.806415999999,-0.06355572581,-0.009337418675,0.261636588,0.2694071674
6032.843417,-0.05623238057,0.009355252683,0.1435754567,0.1544781964
6042.8814170000005,-0.06594080508,0.01807257414,0.07196051359,0.09926289955
6052.9184159999995,-0.08278166324,-0.02085438699,0.09939447999,0.1310227914
6062.955417,-0.09405334085,-0.08706445634,0.1415271771,0.1909350474
6072.993417000001,-0.08656188816,-0.1396855965,0.1222079766,0.2047921285
6083.030417,-0.1265097731,-0.1467677441,0.04729929686,0.1994560525
6093.068416,-0.1153263885,-0.1620351166,-0.03628314257,0.2021682995
6103.105417,-0.163864418,-0.1561484322,-0.118143577,0.2553268202
6113.142417,-0.1589027631,-0.1736120188,-0.1621187317,0.2857861165
6123.1804170000005,-0.1331954795,-0.1568217391,-0.2539621174,0.3268498902
6133.2174159999995,-0.1508254194,-0.125435932,-0.3201525986,0.3754732568
6143.254792,-0.1883879328,-0.08849702418,-0.3830826724,0.4359748506
6153.292791,-0.2928718293,-0.04551092595,-0.4710955471,0.5565753922
6163.3297919999995,-0.4256164885,-0.02247728169,-0.5873025262,0.7256575506
6173.367792,-0.5264847592,0.07353896946,-0.654770624,0.8433971495
6183.404792,-0.608072421,0.1340611598,-0.6502735305,0.9003222357
6193.441790999999,-0.6168797895,0.1212809005,-0.5623881251,0.8435224566
6203.479792,-0.630709624,0.0568285042,-0.3482706892,0.7227147305
6213.516792,-0.6291460785,-0.06550050974,-0.1342321908,0.6466323422
6223.553792,-0.6032601625,-0.1964775556,0.03063180864,0.6351886029
6233.591791,-0.5723637673,-0.3222584733,0.1451302314,0.6726913035
6243.628792,-0.4828730088,-0.3410479161,0.1698300397,0.6150790731
6253.666792,-0.442287485,-0.2679907572,0.1510961455,0.5387646152
6263.703792,-0.4393928209,-0.1255835742,0.004666078091,0.4570110036
6273.740791,-0.4445602977,0.007884677947,-0.1450290745,0.4676852135
6283.778792,-0.5040197566,0.1015661359,-0.1921231341,0.5488742057
6293.815792,-0.5233752099,0.1696709955,-0.1026700902,0.5596883101
6303.852792,-0.4860068241,0.1335164917,0.07932332754,0.510217088
6313.890791000001,-0.467118271,0.04841874629,0.2799717021,0.5467430915
6323.927792,-0.482618655,-0.0546659115,0.4398836946,0.6552913801
6333.964792,-0.5306181559,-0.1786072952,0.4624890304,0.7261902619
6344.002791,-0.5798865026,-0.2095703486,0.3919388652,0.7306190259
6354.039792,-0.6404926005,-0.1539899325,0.2854575598,0.7179343209
6364.077792,-0.6703712878,-0.07759927601,0.1789657295,0.6981747943
6374.114792,-0.6470028904,-0.02647239178,0.1539729756,0.6655983811
6384.151791,-0.6093073529,-0.0121037364,0.1478661436,0.6271095177
6394.189792,-0.5861351296,-0.03340163469,0.1392444241,0.6033730762
6404.226792,-0.6315215099,-0.09390394449,0.09845892549,0.6460120187
6414.263792,-0.6907190135,-0.1092952779,0.03100427628,0.6999996275
6424.301791000001,-0.7168513897,-0.1018178585,-0.07220024943,0.7276370436
6434.3387920000005,-0.7585777053,-0.05948957205,-0.1964190835,0.7858496043
6444.376792,-0.8203237179,-0.02666827351,-0.2836642188,0.8683936826
6454.413792,-0.8594693649,0.02968689859,-0.3902841032,0.9443995883
6464.450791,-0.8680343664,0.1139569706,-0.4579837507,0.9880379387
6474.488792,-0.8265673748,0.2169325778,-0.4757516849,0.9780659661
6484.525792,-0.7810681432,0.3087131059,-0.447079863,0.9514471241
6494.562792,-0.7982446316,0.3191041929,-0.3824330467,0.9408916053
6504.600791,-0.8234107554,0.2503546777,-0.2789841074,0.9047181157
6514.637792,-0.8727899069,0.2125071126,-0.123746379,0.9067715593
6524.674792,-0.8864609894,0.1877327523,0.001793341041,0.9061235501
6534.712791,-0.8963594484,0.203138119,0.1180476826,0.9266394183
6544.7497920000005,-0.929145079,0.1973499602,0.1770455039,0.9662311809
6554.787792,-0.9469910735,0.2352457649,0.1464505327,0.9867017896
6564.824791999999,-1.042434005,0.3268166703,0.1187130958,1.098895168
6574.861791,-1.081220633,0.3968057951,0.02722229719,1.152056401
6584.899792,-1.156768413,0.5030900493,-0.0004408800602,1.261432897
6594.936792,-1.218846256,0.5859296,0.06548413754,1.353952681
6604.973792,-1.351456136,0.6475627613,0.219711467,1.514610295
6615.011791,-1.424253971,0.7055265024,0.3722676623,1.6324369
6625.0487920000005,-1.453426315,0.8322558385,0.4832618487,1.743169483
6635.086792,-1.515167942,0.9178598066,0.5050257701,1.842078051
6645.123791999999,-1.604944629,0.9961939314,0.4649086082,1.945350772
6655.160791,-1.655165488,1.041339114,0.448148734,2.006189729
6665.198792,-1.631252714,0.990610279,0.55676018,1.988033209
6675.2357919999995,-1.516358143,1.009439921,0.7357662553,1.964602493
6685.272792,-1.421759257,1.041885975,0.8713550001,1.966261759
6695.310791,-1.394515325,0.9953897931,0.946460731,1.957360914
6705.3477920000005,-1.276075879,0.9296501322,0.9893190676,1.863161623
6715.385792,-1.121217927,0.6886628401,0.9262264413,1.609124472
6725.422791,-1.243293172,0.9147340313,0.9407743138,1.807642821
6735.459791,-1.195794485,0.8946092306,1.016232047,1.806371418
6745.497792,-1.08769087,0.6168466066,0.9132386059,1.548410771
6755.5347919999995,-1.043966853,0.5881873561,0.7019939071,1.388750014
6765.571791,-0.9509095851,0.834534937,0.6207597095,1.409262295
6775.609792,-0.6534631866,1.232756197,0.6397514659,1.534921469
6785.646792,-0.4273791316,1.420760845,0.5242596012,1.573550898
6795.684792,-0.439684597,1.418565654,0.5907605696,1.598326972
6805.721791,-0.3532145101,1.575231126,0.7408083093,1.776206785
6815.758792,-0.3246005756,1.459885442,0.4754020214,1.56927949
6825.796792,-0.2123506996,1.332322293,0.2873608285,1.379402681
6835.833791999999,-0.05630313188,1.240748756,0.09673575103,1.24578703
6845.870791,0.02773246676,1.201446111,-0.2142606926,1.220716794
6855.908792,0.1545860562,1.211679762,-0.3602276605,1.27351037
6865.9457919999995,0.3642815351,1.262358896,-0.3457137018,1.358590807
6875.983792,0.4961963283,1.361748698,-0.1497097707,1.457046097
6886.020791,0.4304875115,1.379668367,0.1715660781,1.455417198
6896.057792,0.2191666527,1.211251965,0.5984654456,1.368695084
6906.095792,0.1056537782,1.057217813,1.097702472,1.527685485
6916.132792,0.1593202543,1.000551861,1.503396327,1.812922361
6926.169791,0.1958424018,0.791706275,1.729581247,1.912224977
6936.207792,0.2110244049,0.5464884859,1.928875406,2.015872342
6946.2447919999995,0.2894411217,0.5865525112,1.95940138,2.065689662
6956.281791,0.4001685289,0.7086291812,1.541683896,1.743295558
6966.319792,0.5770938724,0.7370616328,1.087925928,1.435228209
6976.356792,0.626850754,0.7794150623,0.4875730008,1.112725096
6986.394791999999,0.5791864447,0.827938693,-0.1695335859,1.024539435
6996.431791,0.5705062531,0.7825678079,-0.688289203,1.188121116
7006.468792,0.6008916016,0.5889996075,-0.9815101111,1.29280832
7016.506792,0.5979772031,0.2969751859,-0.9646917647,1.17320126
7026.543792,0.4258151476,-0.1802014654,-0.136537748,0.4821137466
7036.580790999999,0.196726647,-0.4722592892,0.5189053059,0.7286926144
7046.618792,0.3501071535,-0.8261878174,0.1484912109,0.9095113898
7056.655792,0.5368033406,-1.001444439,0.4787612468,1.232988695
7066.693792,0.5815139289,-0.9622538412,0.2954861194,1.162498581
7076.730791,0.6207032838,-1.194163623,-0.01906309247,1.345980211
7086.767792,0.671987312,-1.276902821,-0.4167608804,1.501911247
7096.805791999999,0.9918380481,-1.158794401,-0.8659118271,1.753952813
7106.842792,1.176555318,-1.036564862,-1.211279958,1.981400583
7116.879790999999,1.303264554,-1.036559892,-1.074911195,1.982016394
7126.917792,2.046477385,-1.013607451,-0.09129082382,2.285564212
7136.954792,3.18180859,-0.8333687829,1.179740077,3.4943091
7146.992292,4.213356542,-0.7847026994,2.034962609,4.74438663
7157.029292,4.848930172,-0.8503050238,2.653431965,5.592480991
7167.066291,4.590048792,-1.039009803,2.959415005,5.559336872
7177.104292,4.173164535,-1.348688357,3.075930133,5.356828232
7187.141291999999,3.441780184,-1.692491773,1.168518686,4.009465694
7197.1782920000005,2.685119488,-1.905037624,-0.3108034855,3.306906987
7207.216291,2.410811691,-1.596472891,-0.7078487241,2.97687563
7217.253291999999,2.511120383,-1.064790396,-0.5803881937,2.788611594
7227.291292,2.577301801,-0.7871562642,-0.04137138963,2.69514585
7237.328292,2.593144248,-0.6633706357,0.4332172841,2.711482049
7247.365291,2.654950194,-0.6932223527,0.6969723183,2.831093106
7257.403292,2.866596889,-0.776210715,0.858402248,3.091396969
7267.440292,3.234118951,-0.9303337448,0.9237600857,3.489753424
7277.4772920000005,3.530201486,-0.9736964037,0.9519079971,3.78371987
7287.515291,3.465954035,-0.900121547,0.7722850406,3.663260891
7297.552291999999,3.102926143,-0.5401419546,0.3504622257,3.16902631
7307.590292000001,2.660136967,0.1017628947,-0.08190194964,2.663342317
7317.627292,2.391989796,0.3261464332,-0.3455406243,2.438726103
7327.664291,2.090380473,0.6426187943,-0.4271934825,2.228260242
7337.702292,1.792278894,0.7386511253,-0.7062670523,2.063172864
7347.739292,1.618341478,0.5633055532,-0.9135613722,1.941889972
7357.776292,2.106026745,0.4581018645,-1.235407909,2.484238046
7367.814292,2.153770576,0.5649953985,-1.874803864,2.910813808
7377.851292,1.520349598,1.732649135,-1.811803039,2.931921926
7387.888292000001,0.7247292703,1.782537433,-1.626406542,2.519498056
7397.926291,0.8278935233,1.309450909,-1.58292957,2.214889476
7407.9632919999995,0.7779128395,0.9984484716,-1.061862549,1.652150056
7418.001292,0.7730087797,0.7009121722,-0.8725706363,1.360220556
7428.038292,0.6737375298,0.5873264998,-0.9216375464,1.283857641
7438.075290999999,0.5784577355,0.3437689179,-0.8498331535,1.08397731
7448.113292,0.7202033061,0.1282205223,-0.8416037822,1.115092028
7458.150292,0.8703495714,-0.08655837983,-1.037559181,1.357029766
7468.187292,1.002401189,-0.4404524826,-1.073444129,1.533326068
7478.225291000001,1.078961123,-0.9119554344,-0.5333192772,1.510049426
7488.262292,1.011746209,-1.253255512,-0.01668970764,1.610763271
7498.300292,0.7791132729,-1.726389544,0.7228374767,2.027296813
7508.337292,0.8808787988,-2.232102947,1.566691267,2.86579004
7518.374291,1.279946005,-2.373820743,1.402875089,3.039958094
7528.412292,0.722161831,-2.295141779,1.210863052,2.693581784
7538.449292,-0.1118904184,-2.164850319,1.276593942,2.515708342
7548.4872909999995,-0.2930251725,-1.779883381,2.902263735,3.417160135
7558.524291000001,-0.3947000666,-1.688176821,3.225509511,3.661917629
7568.561292,-0.695229848,-2.205982558,3.388853819,4.102929903
7578.599292,-0.3356597069,-2.308130784,3.483561171,4.192294549
7588.636291000001,-0.09301282883,-2.102623373,3.021218321,3.682042446
7598.673292,-0.4502516851,-1.870123461,2.368466156,3.051183421
7608.711292,-0.7718619946,-1.470458669,1.746524139,2.410055229
7618.748292,-0.9300341481,-1.086139603,1.587912567,2.13685027
7628.786291,-0.9640120259,-0.9141653895,1.652200364,2.120090467
7638.823292,-1.140512569,-1.078991967,1.513687427,2.180881063
7648.860292,-1.311137538,-1.32645198,1.39754886,2.330600634
7658.898292,-1.2019364,-1.540275301,1.255684884,2.322464992
7668.935291000001,-1.367727476,-1.587196868,1.27980114,2.455150363
7678.972292,-1.246183451,-1.231249954,0.1208099073,1.75600247
7689.010292,-1.560540581,-1.148389646,-1.030810325,2.194688044
7699.047292,-1.781366235,-0.9686585158,-1.124244738,2.31851056
7709.084291,-1.373300165,-0.7583464479,-1.289661884,2.030829991
7719.122292,-1.225025885,-0.7812353736,-0.9688099587,1.746313221
7729.159292,-1.114869897,-0.4898487371,-0.967371836,1.555215401
7739.197292,-1.011293781,-0.1781746012,-1.046138216,1.465901248
7749.234291,-1.161269015,-0.140737803,-0.9829777622,1.52793918
7759.271292,-1.240314015,0.2678784907,-0.3766884497,1.32364343
7769.309292,-1.198100042,0.4609933126,-0.3716300234,1.336438334
7779.346291000001,-1.038477194,0.2922385758,-0.5405525753,1.2066629
7789.383291,-0.6262031749,0.6603921372,-0.3403234461,0.9716317404
7799.421292,-0.6351824516,0.7729843676,-0.4884147075,1.113333062
7809.458292,-0.7169165862,0.846274538,-0.7737933299,1.352370549
7819.496291,-0.6710083419,0.9422758788,-0.8412646437,1.430336404
7829.533292,-0.8727910763,0.8931715465,-0.8032290906,1.484822092
7839.570292,-0.9259294027,0.8640857416,-0.4156325139,1.33294404
7849.608292,-1.081408621,0.8211484677,-0.4868896075,1.44249468
7859.645291,-0.6585923642,0.719023338,-0.3599781306,1.03938574
7869.682292,-0.2267649633,0.6529299206,-0.2829508585,0.7468607755
7879.720292,-0.09223865747,0.5349605906,-0.15739462,0.5652113497
7889.757291999999,-0.02660483122,0.1979112929,0.2825554405,0.3459975056
7899.795291,-0.03265552998,-0.2931881636,0.3446442461,0.4536577337
7909.832292,-0.2382483101,-0.6525100905,0.3521696126,0.7788164813
7919.869291999999,-0.4280442524,-0.6812737137,0.3111204046,0.8626422556
7929.907292,-0.6577415943,-0.8166414338,0.07761652529,1.05145212
7939.944291,-0.6220765024,-1.091917822,0.01576350868,1.256786455
7949.982292,-0.2407626128,-1.191428077,-0.1611113296,1.226142063
7960.019292,0.1553482407,-1.375734068,-0.3261437289,1.422373732
7970.056292,0.4727263355,-1.35243116,-0.3982907321,1.487002265
7980.094292000001,0.7607590091,-0.976318953,-0.382883867,1.295589836
7990.131292,0.6145873886,-0.8282686222,-0.3955290921,1.104622031
8000.168291999999,0.4541649342,-0.726446963,-0.340893842,0.9220626817
8010.2062909999995,0.1723975521,-1.450546269,-0.3171716881,1.49479205
8020.243292,0.09850219488,-1.571318169,-0.0200588733,1.574530352
8030.280292,0.004926279187,-1.475832553,0.3382269269,1.514101531
8040.318292,0.1103340358,-1.708756973,0.4186173713,1.762743457
8050.355291000001,0.2099226433,-1.802009538,0.6683355796,1.933385202
8060.393292000001,0.3004679471,-1.554961753,0.8243392932,1.785419365
8070.430291999999,0.2555239087,-1.426010182,0.7080895563,1.612509947
8080.467291999999,0.3157432133,-1.268887312,0.5900214815,1.434536209
8090.5052909999995,0.660138368,-1.238722696,0.5533921838,1.508794052
8100.542292,1.134565074,-1.46682901,0.5143493016,1.924416913
8110.580292,1.375293188,-1.37393488,0.710957104,2.069924736
8120.617292000001,1.478890647,-0.8885387975,1.078410169,2.03459756
8130.654291000001,1.397804968,-0.4109744757,1.287222426,1.944145139
8140.692292000001,1.004176258,0.2213130194,1.219280119,1.5949901
8150.729583,0.9706986094,0.585286991,1.300552908,1.72518246
8160.766582999999,0.9605577832,0.4790781659,1.278248119,1.669163083
8170.804583000001,0.9537639034,0.105131768,1.440014118,1.730421605
8180.841582999999,0.6313098407,-0.6256520748,1.499831572,1.743412567
8190.879582999999,1.238221589,-1.839320036,2.06516494,3.030049031
8200.916583,2.046358833,-2.191643138,2.277120953,3.765124693
8210.953583,3.945871861,-0.9885995677,3.64188886,5.459907354
8220.991582999999,3.631975198,-0.05137188256,2.702779541,4.52757111
8231.028583000001,2.5947458,-0.04913327605,1.184877149,2.85290268
8241.065583,2.475828052,-0.5419421661,1.242248274,2.822517782
8251.103583,2.923566311,-1.068688296,0.9573570174,3.256665028
8261.140583,3.000458951,-1.786283159,1.013285927,3.635974396
8271.178582999999,3.159983273,-2.172469972,0.9479684356,3.950160025
8281.215583,2.943626938,-2.449286224,1.033171723,3.966281176
8291.252583,2.590880206,-3.02530377,1.104925538,4.133519516
8301.290583,2.58089667,-3.326889705,1.373972302,4.429110815
8311.327583,2.337369493,-3.762150883,0.8517773527,4.510277162
8321.364582999999,2.049077203,-4.581363338,0.284749462,5.026797159
8331.402583,2.139992051,-5.060319589,0.2785525829,5.501271841
8341.439583,2.086698774,-5.24387246,0.9891693789,5.729831254
8351.477583,1.791644763,-5.16428133,1.840173145,5.767671091
8361.514583,1.205801117,-4.854246168,2.568604653,5.622756625
8371.551583,0.173031975,-4.731400845,3.025631799,5.618766929
8381.589583,-1.100198649,-4.478139809,3.329919732,5.687929205
8391.626583000001,-2.127599462,-4.146956145,3.880093608,6.064573452
8401.663583,-2.558531654,-3.82972657,3.99148716,6.094658282
8411.701583,-2.520870908,-3.322782328,3.861313521,5.683785239
8421.738583,-2.281088873,-2.577391849,3.513704737,4.918580706
8431.776582999999,-1.855704519,-1.80791698,3.454074832,4.317735056
8441.813583,-1.670760012,-1.198121092,3.108638873,3.72700534
8451.850583000001,-1.55602887,-0.8476571122,3.061589836,3.53738332
8461.888583,-1.303156673,-0.4731607836,3.088461008,3.385364064
8471.925583,-0.8666778123,-0.06765579343,3.184436037,3.300960558
8481.962583,-0.3201835889,0.272806524,3.348137902,3.374458229
8492.000583,0.4497011697,0.6453659624,3.2631533,3.356620001
8502.037583,1.553980005,0.889843896,3.368375115,3.814790549
8512.075583,2.564810395,1.057449655,3.38181611,4.374143612
8522.112583,3.261019067,1.054724268,3.368891132,4.805841872
8532.149583,3.674551114,1.04239249,3.419264603,5.126429402
8542.187583,3.831900272,0.9441230142,3.673491599,5.391601663
8552.224583,3.927170126,0.7830713993,3.640170656,5.411719544
8562.261583,4.040901394,0.6713047957,3.546066737,5.417944583
8572.299583,4.291520659,0.6769958907,3.390827546,5.511187209
8582.336583,4.502615669,0.8781535578,3.176112233,5.579640709
8592.374582999999,4.557012316,1.052349129,3.059236917,5.588625095
8602.411583000001,4.558265667,1.065591903,2.932781231,5.523991106
8612.448583000001,4.512739538,0.7785918474,2.801558309,5.368403148
8622.486583,4.397323687,0.4582831281,2.730090716,5.196140332
8632.523583,4.144362028,0.2999487144,2.569320937,4.885398236
8642.560583,3.683980627,0.2346668905,2.141686574,4.267739822
8652.598582999999,3.181181476,0.2360596973,1.730733441,3.629197984
8662.635583,2.829942448,0.4015663058,1.363214887,3.166730899
8672.673583,2.480253809,0.5131873137,1.039023617,2.737624929
8682.710583,2.010813316,0.4877788228,0.7474235567,2.199986442
8692.747582999998,1.399391318,0.4887365967,0.6381849968,1.613827628
8702.785583,1.122653126,0.4627720356,0.4369136015,1.290504356
8712.822583,1.023750982,0.4236477309,0.150863134,1.118169557
8722.859583,1.115311947,0.3273563683,-0.0205158332,1.162541969
8732.897583,1.133810783,0.04102815807,-0.1215954807,1.141050245
8742.934583,1.07635955,-0.2539048147,-0.364351117,1.164375057
8752.972583,1.044343998,-0.02029393137,-0.6744666776,1.243371034
8763.009583000001,1.012524912,0.3819664389,-1.258591827,1.659866996
8773.046583,1.005976616,0.2707974207,-1.73247825,2.021583805
8783.084583000002,1.04239249,-0.1840329266,-1.804026535,2.091640973
8793.121583,1.141995131,-0.5220014066,-1.774146093,2.173530011
8803.158583,1.185997475,-0.6694640923,-1.55041145,2.063624928
8813.196582999999,1.118957101,-0.7276912504,-1.33867997,1.890413609
8823.233583000001,0.8843779188,-0.7996026474,-1.247154965,1.725364948
8833.271583,0.6212073138,-0.8864601123,-1.047586864,1.506369243
8843.308583,0.3085014367,-1.064196172,-0.7408045086,1.332845809
8853.345583,0.03442723632,-1.253695661,-0.5994353525,1.390057836
8863.383582999999,-0.1733790073,-1.284035693,-0.5649781492,1.413509197
8873.420583,-0.424401437,-1.258809636,-0.4744173503,1.410599199
8883.458583,-0.4913181424,-1.085639666,-0.481309171,1.285171397
8893.495583,-0.4921744671,-0.8503816223,-0.4791126645,1.093130164
8903.532583,-0.5156799817,-0.6451104391,-0.3815884164,0.9097818649
8913.570583,-0.5376222432,-0.4772918415,-0.2125614917,0.7496849779
8923.607583,-0.519194743,-0.273495326,0.001579917669,0.5868265252
8933.644583,-0.4779747963,-0.006938306093,0.1205095066,0.4929813254
8943.682583,-0.4525312221,0.1268781477,0.1802237579,0.5033519388
8953.719583,-0.5374164212,0.3052842987,0.1396019813,0.6336431377
8963.757582999999,-0.7133623561,0.6307192719,0.07940606564,0.9555092749
8973.794583,-0.8747250429,0.8890556914,0.08414260268,1.250057559
8983.831583000001,-0.9219740537,1.086778704,0.2045569459,1.439780418
8993.869583,-0.7151197368,1.159304643,0.4156598496,1.424133633
9003.906583,-0.3731324655,0.9947230643,0.63670302,1.238584897
9013.943583,0.04586789846,0.8578420848,0.7488501312,1.13963741
9023.981582999999,0.4799663579,0.7103548408,0.7757006916,1.156150192
9034.018583,0.6812786838,0.391223166,0.8349873653,1.1464729
9044.056583,0.6840824237,0.2476442009,0.7696026304,1.059048923
9054.093583,0.6191344759,0.1743470138,0.7760924551,1.007990019
9064.130583,0.5915183687,0.002849348187,0.8767090032,1.057601426
9074.168583,0.6618980876,-0.2228368038,0.960782901,1.18780011
9084.205582999999,0.8517884624,-0.3579794061,0.8274859723,1.240332969
9094.242583,0.9197793013,-0.7222989482,0.7583664747,1.393854169
9104.280583,0.7904690042,-0.9511794341,0.5921617086,1.37121809
9114.317583,0.5252612293,-0.8164116383,0.3969218624,1.04879659
9124.355583,0.1705439848,-0.5251951557,0.331144487,0.6438725601
9134.392583,-0.2059287027,-0.3266143566,0.3067671525,0.4931426309
9144.429542,-0.5692855006,-0.3685383081,0.436699301,0.8066056938
9154.467541,-0.8618582448,-0.3928329045,0.4377213943,1.043416189
9164.504541999999,-0.9805692941,-0.3986128771,0.6085071614,1.22093789
9174.541542,-1.009010443,-0.2789846921,0.7256780541,1.273790866
9184.579541,-0.8840355644,-0.3146965617,0.6989238265,1.170062956
9194.616541,-0.6737679353,-0.5450213099,0.6492341879,1.082828006
9204.654542,-0.5141281307,-0.8120969778,0.6301360121,1.149304411
9214.691542,-0.2686933002,-0.9629960722,0.4452704421,1.094451137
9224.728540999999,0.007831760645,-1.017941773,0.2141820475,1.040259938
9234.766542,0.2638076591,-0.8477644086,-0.2216442642,0.9151093669
9244.803542,0.4132794482,-0.6962080872,-0.6591212448,1.04400499
9254.840542,0.1867434034,-0.7530061859,-1.131188599,1.371670172
9264.878541,-0.2475985926,-0.4815661561,-1.536795623,1.629402287
9274.915542,-0.7187163591,0.08169671237,-1.840830957,1.977848874
9284.953542000001,-1.0861665,0.5862354094,-1.74560408,2.137887561
9294.990542000001,-1.261399952,1.124421909,-1.168160544,2.054276886
9305.027541,-1.268016077,1.352221245,-0.238606452,1.869037213
9315.065541999998,-1.214507037,0.940190177,0.9877853429,1.82611741
9325.102542,-1.143233571,0.5408750492,2.182993937,2.522893447
9335.139542,-1.063870482,0.3732938486,3.272802668,3.461561209
9345.177541,-1.114225534,-0.6776876163,3.418248064,3.658576072
9355.214542,-0.4882799292,-1.482918209,3.219997048,3.578525491
9365.252542,0.3290526456,-1.341550076,2.433123789,2.797878415
9375.289542,0.4841260672,-0.8345777678,1.036375705,1.415970586
9385.326541,0.6671597046,-0.6821420252,-0.6368682039,1.147179551
9395.364542,1.149072016,-0.4076374698,-1.148299891,1.674851469
9405.401542,1.667408388,-0.07753349483,-0.8083047661,1.854620923
9415.439541,1.541818966,-0.07558812618,-0.3640453076,1.58601648
9425.476542,1.097850407,-0.4064709502,0.01997730464,1.170851503
9435.513542,0.5848554665,-1.09886139,0.1004110184,1.248853332
9445.551542000001,0.009875362515,-1.44700578,-0.1439099175,1.454177882
9455.588541,-0.2163282681,-1.149901736,-0.553071464,1.294202444
9465.625542,-0.1390023494,-0.5626600206,-0.6465663958,0.8683064298
9475.663542,-0.1071168977,-0.1798866659,-0.5401225126,0.579280218
9485.700542,-0.1113116902,0.1146937197,-0.1747083718,0.2367867329
9495.738540999999,0.0990611887,0.4138437045,0.2101120931,0.4745806807
9505.775542,0.1247930306,0.3424363375,0.1031811368,0.3787905658
9515.812542000001,0.05445219576,0.4038385338,0.03229037136,0.4087704381
9525.850542,-0.1372762513,0.6647003657,0.1481935877,0.6947177015
9535.887541,-0.5178282487,1.137502715,0.3959398225,1.311040375
9545.924542,-0.7793648493,0.9618663901,0.2117785496,1.25596444
9555.962542,-0.9914790291,0.5100005811,0.8836648509,1.422671721
9565.999542,-1.576428636,0.009423372746,0.6223720792,1.694863726
9576.037541,-1.674240859,-0.3232925534,-0.005991349518,1.705179294
9586.074542,-1.536438943,0.02416011035,-0.0281511274,1.536886731
9596.111541999999,-0.7488558322,0.2168925244,0.01256391227,0.7797341063
9606.149541,-0.358861751,0.05705654562,0.6326748732,0.729599
9616.186542,-0.7508128953,-0.2181169313,0.8051282662,1.122286293
9626.223542,-1.605261256,-0.5860839665,0.4084283057,1.757034945
9636.261542,-2.492383858,-0.5981175363,-0.2774810806,2.578122889
9646.298541,-2.444674087,-0.2778515017,-0.4390916893,2.49928677
9656.336542000001,-2.107463406,-0.1769215429,-0.09333194062,2.11693507
9666.373542000001,-2.629045567,-0.1623572981,0.7510445912,2.739034221
9676.410542,-2.846747346,-0.4364086944,0.7939723635,2.987442906
9686.448541000002,-3.444928032,-0.7927912259,0.1530646107,3.538287135
9696.485542,-3.660001488,-0.9298406053,-1.065907945,3.923821376
9706.523541999999,5.240067676,-0.4091542375,-3.686474172,6.419953914
9716.560542,29.01108676,1.370282124,-6.161703469,29.68985378
9726.597541000001,1.460304687,-3.129680078,1.348544223,3.707554274
9736.635542,-5.01749926,-1.632275392,1.327186683,5.440684357
9746.672542,0.4131560719,-1.215086496,-1.608087069,2.057444326
9756.709541999999,1.106758055,-0.8103995311,-0.8503110172,1.613905083
9766.747541,0.03639423966,-0.2254201037,0.04287880182,0.2323302724
9776.784542,-0.1202129066,0.2761324203,0.02952624634,0.3026087502
9786.822542,-0.8236288565,0.7828462815,0.2996654168,1.175164736
9796.859541,-1.647714381,0.881248489,0.4811173823,1.929516912
9806.896542,-1.368387626,0.5554837328,0.3712923467,1.522795088
9816.934542,-0.4817421573,0.04832139015,-0.01145849615,0.4842951167
9826.971542000001,-0.008220600486,-0.2880315042,-0.4024670693,0.4949843104
9837.008541,-0.225182122,-0.6083150804,-0.742214857,0.9857165511
9847.046542,-0.1902046627,-0.7329455584,-0.816763933,1.113773014
9857.083542,-0.1586004621,-0.7915299815,-0.7632696573,1.110970021
9867.121541999999,-0.3745644486,-0.9381138307,-0.2669359195,1.044801833
9877.158541,0.4034836078,-0.6283973426,0.2313955195,0.7818095218
9887.195542000001,0.5474806488,-0.1211513847,0.55759487,0.7907747833
9897.233542,0.4880507183,0.2655179697,0.5107846928,0.7547147132
9907.270541999998,0.5655222327,0.1318716699,-0.003097854853,0.5807022728
9917.307541,-0.09631124318,0.213711639,-1.33869298,1.359061226
9927.345542,-0.8033442807,0.3871529192,-1.529694472,1.77065372
9937.382542,-1.036478616,0.27340294,-1.046296091,1.497922761
9947.420542,-1.28756595,0.1827313364,-0.06545270875,1.302114002
9957.457541,-0.4454274398,0.4131899858,0.4977043252,0.7853923629
9967.494542,0.6191809613,0.4752271897,0.2142608388,0.8094032688
9977.532542,0.3153686991,0.6852340329,-0.7783662911,1.083908289
9987.569540999999,0.4429859349,1.035831329,-1.471147618,1.852959361
9997.607542000002,0.7046880117,0.9916018206,-1.020533259,1.587875152
10007.64454,0.2614196563,0.1980095261,-1.056230072,1.105970151
10017.68154,-0.3557109788,-0.2222655308,-0.01278201342,0.419637518
10027.71954,-0.005546376407,0.008650955558,1.302157384,1.302197932
10037.75654,0.1485315567,-0.2896786648,1.745528066,1.775624842
10047.79354,1.539971246,-0.05579237759,0.07502328515,1.542806767
10057.831540000001,2.351027127,-0.6683408421,-1.578554391,2.909612002
10067.86854,0.7911885041,-0.6329798055,-1.175822735,1.552160361
10077.90654,0.3653582999,-0.00791596055,-0.7071656232,0.7960104072
10087.94354,-0.7107737938,0.3444711685,-0.5218625352,0.9466785502
10097.98054,-1.394675246,0.25664482,-0.6850843441,1.574905129
10108.01854,2.416380579,-0.7419759983,-3.368461362,4.211407773
10118.055540000001,0.7135962448,-0.473796376,0.3474956408,0.9243677984
10128.092540000001,0.2999788275,0.3255495787,1.265895584,1.341067282
10138.13054,0.6597463122,-0.1503658283,0.4872364935,0.8338312056
10148.167080000001,-0.3544029567,-0.3386081654,0.0938323161,0.4990605664
10158.20508,0.07435231715,-0.3123752171,0.3363373992,0.4650047198
10168.24208,0.5624161917,-0.08655457914,0.3726676118,0.6802093919
10178.27908,2.342527907,1.648379794,2.185760255,3.603073803
10188.317079999999,-2.78892043,1.828310899,4.183034928,5.349633549
10198.35408,-6.726790084,2.578336174,-0.9370255177,7.264677493
10208.39108,1.426314822,1.102905325,-6.128000118,6.387735089
10218.42908,1.870248152,1.214327527,-1.074166552,2.475126921
10228.46608,-3.702648155,1.860788088,2.123116694,4.656152937
10238.50408,-5.187896479,3.003804728,2.126071146,6.360604629
10248.54108,10.41592591,2.348665144,-1.822660149,10.83188952
10258.57808,11.1986646,-0.9059336793,-0.581619325,11.25029269
10268.61608,-1.755394365,-3.676421639,0.2214972067,4.080017948
10278.65308,-1.26885793,-3.639937352,1.128828371,4.016640121
10288.69008,-1.191705088,-3.660400268,-0.8521601991,3.942698079
10298.72808,-0.2014611375,-2.291671164,-0.6665463316,2.395125743
10308.765080000001,-0.142984888,-1.669999874,-0.2122109511,1.68949038
10318.80308,-1.301233816,-0.9634445536,-0.1217342059,1.623654541
10328.840080000002,-2.340153206,0.1757901067,0.1844445705,2.353983643
10338.87708,-0.3071519724,1.078313105,0.4780509563,1.21886595
10348.915079999999,-0.4551853464,0.5541868204,0.06384077758,0.7199947058
10358.95208,-0.9999564685,0.6742576396,0.1318278158,1.21322499
10368.99008,-0.684686368,1.025376508,0.1053560087,1.237453956
10379.02708,-0.498640976,0.7932011157,-0.1789737694,0.9538566156
10389.06408,-0.2857040931,0.2273385751,0.2345189559,0.4339456155
10399.10208,0.007516888082,-0.4774274969,0.1153668804,0.4912260534
10409.139079999999,0.09447550982,-0.3422474724,0.009517659098,0.3551753654
10419.17608,0.1236740197,-0.3365212941,0.07589817479,0.3664728878
10429.21408,0.1943048765,-0.2129468232,0.001680635959,0.2882768792
10439.25108,0.1961565435,-0.3305425161,-0.07278014705,0.3911939344
10449.28908,0.08040433154,0.269471857,-0.2232735908,0.3590696793
10459.32608,0.4838531484,0.108945322,-0.1466050453,0.5171808114
10469.363080000001,0.2484837149,-0.01349420428,-0.1748750174,0.3041504921
10479.401080000001,0.3003898868,-0.07576705098,-0.1734585294,0.3550529419
10489.43808,0.3071785042,-0.1252485287,-0.07271495059,0.339607555
10499.47508,0.1782782431,0.1238323331,-0.1576621301,0.2682814305
10509.513079999999,0.399328284,0.07845618546,-0.4104184055,0.5779807255
10519.55008,0.04432730332,0.2527792257,-0.3401091456,0.4260709773
10529.58808,-0.3094096555,0.4824256968,-0.3323593922,0.6625191722
10539.62508,-0.1688686113,0.2301627803,-0.2136559443,0.3565674913
10549.66208,-0.1943341126,-0.2189653623,-0.145873851,0.327094417
10559.70008,-0.2855739194,-0.04482884824,-0.2741769652,0.3984157343
10569.737079999999,-0.146741724,0.2670961332,-0.45932671,0.5512299923
10579.77508,0.1235506435,0.1198246515,-0.3331871387,0.3750151703
10589.81208,-0.06124724507,0.3231487119,-0.3062071355,0.4493763733
10599.84908,0.3830759481,-0.3434777266,-0.3417370105,0.6176635937
10609.88708,-0.03231785327,-0.3456487978,-0.0001053960621,0.3471563713
10619.92408,-0.275170261,-0.03483361781,-0.01504715167,0.2777741353
10629.96108,-0.001753579974,-0.09249593496,-0.04503152736,0.1028902886
10639.999080000001,-0.457488053,0.2133771783,0.008299537897,0.5048703014
10650.03608,0.09459128469,0.07411404312,-0.1544248192,0.1956717336
10660.074079999999,-0.005679839104,0.08445601344,0.06557447702,0.1070751643
10670.11108,0.01411254734,-0.2540159118,-0.2969053848,0.3909936764
10680.14808,-0.06579725593,-0.4450058556,-0.2723188663,0.5258488902
10690.18608,-2.099348347,-0.05786521554,-0.5666150773,2.175238955
10700.22308,0.5187978633,0.4545397407,-0.4823274636,0.8416634606
10710.26008,0.6476164826,-0.4195564342,-0.1698850036,0.7901238032
10720.298079999999,-0.5931384129,-0.1268892574,-0.1502735884,0.624896961
10730.335079999999,-0.02685779639,0.8761105406,-0.2082544327,0.900922266
10740.37308,0.0887346404,1.351266979,-0.15777542,1.363337584
10750.41008,0.2492668033,0.7707852298,-0.09154620096,0.8152450654
10760.44708,-0.061878452,0.6222261912,-0.2089315403,0.6592774562
10770.48508,-0.05058378752,1.277243568,-0.07340243697,1.280350643
10780.52208,0.1916384182,1.493977048,0.1384948841,1.512571828
10790.559079999999,0.6088501006,0.9239787716,0.03166267276,1.106994914
10800.59708,-0.1610605684,1.042894181,0.04836941041,1.056365647
10810.63408,0.9732990123,-0.07178217351,0.06411705852,0.9780463409
10820.67208,0.442885107,-1.137942426,-0.1181558561,1.226792969
10830.70908,0.07631822415,-1.709482613,-0.3290755959,1.742540106
10840.74608,-0.2307608043,-1.419115731,-0.3108227813,1.470969343
10850.784080000001,0.3109572673,-1.706049712,-0.105049907,1.737335755
10860.82108,-0.07068011954,-1.275260777,-0.0119457154,1.277273827
10870.85908,-0.5568790247,-0.4734244931,-0.1206314941,0.7408083127
10880.896079999999,-0.661733927,0.4119439441,-0.04493110143,0.7807742357
10890.93308,-0.4503276258,0.6853310966,-0.2621435416,0.8609256176
10900.97108,-0.3810139275,0.3912044549,-0.3264267341,0.6362129763
10911.00808,-0.393454902,0.00418017447,-0.1113860229,0.4089389684
10921.04508,-0.4387102316,-0.1748539674,0.05584909558,0.4755625076
10931.08308,-0.3675139491,-0.1011854821,0.1238802072,0.400813311
10941.120079999999,-0.04106579952,0.0002911913395,-0.1085851336,0.1160914119
10951.158080000001,0.3333155581,0.3088323891,-0.4498379215,0.6393988282
10961.19508,0.5652822044,0.2659418929,-0.5196805736,0.8126111983
10971.23208,0.60616082,0.2313088346,-0.3143310376,0.7209290657
10981.27008,0.4813568258,0.09095870197,-0.04961355172,0.4923813398
10991.30708,0.3448282141,0.1423264915,-0.08879004277,0.383467077
11001.34408,0.1294367431,0.5129826611,-0.07678570904,0.5346037095
11011.382080000001,-0.08332033798,0.7011092234,-0.1743769077,0.7272576763
11021.41908,-0.08207319997,1.223628109,-0.09411912203,1.229983808
11031.457079999998,-0.2483575612,1.635985451,0.161866132,1.662627594
11041.49408,-0.508630542,1.008123713,0.2455070801,1.155548431
11051.53108,-0.3041652329,0.7366433376,0.1070367908,0.8041248475
11061.56908,-0.2173872171,0.6506863439,-0.2002659301,0.7146722067
11071.60608,0.1885104319,1.022532422,0.164078755,1.052630312
11081.64408,0.5786275971,1.341213861,0.3283878171,1.497165013
11091.68108,0.6513359696,1.013771539,0.1165865,1.210604679
11101.718079999999,-1.423528917,-0.562518518,-0.7129662073,1.688544483
11111.75608,-0.5861920669,-1.390600029,-0.2932905265,1.537338256
11121.79308,0.1313169153,-1.505201363,-0.6595437062,1.648597336
11131.83008,0.241453169,-1.656633139,-1.04694981,1.974547263
11141.86808,0.4989997758,-1.898947603,-0.7424607325,2.099107123
11151.90567,0.5191402178,-1.430903133,-0.12755584,1.5275015
11161.943669999999,0.55662891,-1.107880136,-0.08202828605,1.242562988
11171.98067,0.6012463814,-0.9450451201,-0.1543781877,1.130681261
11182.017670000001,0.5414985086,-0.6336902422,0.03784668803,0.8343957872
11192.05567,0.6682407086,-0.2629767698,-0.1294199324,0.7296930484
11202.09267,0.7643224485,0.3312260556,0.030566868,0.8335669371
11212.12967,0.5629146668,0.8038155663,0.07983086586,0.9845635347
11222.167669999999,0.264786483,0.7430963248,0.02565527994,0.7892795594
11232.20467,-0.06947705492,0.3688792008,-0.03987340607,0.3774769059
11242.24267,-0.2434119862,-0.1157655144,-0.1180704868,0.2942646584
11252.27967,-0.2661408444,-0.2404076868,-0.1558562907,0.3910472967
11262.31667,-0.1367466398,-0.4536603194,-0.2229437713,0.5236518443
11272.35467,-0.2190396219,-0.6712083167,-0.2022949505,0.7344536795
11282.39167,-0.3284198307,-0.5650655651,-0.0932806313,0.6601969056
11292.42867,-0.1091378416,-0.1213455123,0.1146346263,0.1994414685
11302.46667,-0.1552083461,0.3460107404,-0.01680376489,0.379599038
11312.50367,-0.5349639527,0.7251675922,-0.02692997295,0.9015429501
11322.54167,-0.1369336045,0.8625531864,0.1113918336,0.8804299813
11332.57867,-0.4716382418,0.1702334976,-0.0739334007,0.5068414176
11342.615670000001,-0.3426412093,0.3979843014,0.07349482298,0.5302791637
11352.65367,-0.2458173846,0.4471786809,0.0008934545517,0.5102898759
11362.69067,-0.2589223105,0.8671046591,-0.05886741003,0.9068498358
11372.72867,-0.001200579554,0.7796718282,-0.1350051745,0.7912749194
11382.765669999999,-0.3892201292,1.161540619,0.2175830805,1.244191028
11392.80267,-1.225198598,3.360977803,1.264387879,3.794200852
11402.84067,-0.5303707821,3.850506113,0.804593246,3.969264514
11412.87767,-0.7447587613,3.08003137,-0.06232897997,3.169407477
11422.91467,-0.770823456,3.402551506,0.120795874,3.490861956
11432.95267,-0.4747461831,3.939645161,0.2888009795,3.978642223
11442.989669999999,-0.2795524385,3.157492944,0.3044470139,3.184430756
11453.027670000001,-0.07497151902,1.562448528,0.03352435313,1.564605386
11463.06467,-0.05326257974,-1.522187524,-0.1372651416,1.529291823
11473.10167,-0.4302216459,-1.555775685,0.2974519533,1.641342838
11483.13967,2.866900652,-1.411387466,0.003431730866,3.195488335
11493.17667,0.2294872076,-6.255795109,-1.213458631,6.376528732
11503.21367,-0.01038666498,-7.22780174,-0.1875927114,7.230243212
11513.251670000001,-0.2169422257,-6.694876565,0.001717400327,6.698390785
11523.28867,-1.330195076,-5.129533666,-0.03434179388,5.29931259
11533.326669999999,-1.486155081,-1.463962705,0.2791349655,2.104699517
11543.36367,-0.7043336704,0.01846316814,0.1139949044,0.7137377993
11553.40067,-0.4832365229,0.2426553565,-0.2127703104,0.5810941095
11563.43867,-0.1487886149,0.5747304279,-0.2511607895,0.6446199336
11573.47567,-0.009689421058,1.42559503,-0.1551945321,1.434050354
11583.51367,-0.3764930065,0.04106382608,0.1114666414,0.3947885939
11593.55067,0.2431874897,0.9504216349,-0.2839946596,1.021319933
11603.587669999999,0.07334311514,0.503629455,-0.4875957318,0.704820146
11613.62567,-0.2361860337,-0.04913941562,-0.3219120258,0.4022758718
11623.66267,-0.1856736187,-0.8192820364,-0.4039209795,0.9321211861
11633.69967,-0.06007351703,-0.5586950237,-0.2540626895,0.6166820957
11643.73767,0.1400855095,-0.663553142,-0.3171225715,0.7486611032
11653.77467,0.2177881351,-0.3048475116,-0.2927355891,0.4754553631
11663.812670000001,0.1830587439,0.3125184739,-0.1510158925,0.3924080784
11673.84967,0.2798436663,0.622583456,-0.07955897033,0.6872061314
11683.88667,-0.04714641958,-0.2508461362,-0.01761539496,0.2558454046
11693.92467,0.3147951604,0.259964869,-0.2562999073,0.4820449861
11703.96167,0.4279117033,1.690829995,-0.04080011666,1.744614326
11713.99867,-0.1351875711,-0.5177253377,0.2173762353,0.5775531425
11724.03667,0.04263625201,-0.6699821556,-0.2535838026,0.7176340876
11734.073670000002,0.1998481648,-0.02495474696,-0.4424669945,0.4861471687
11744.11167,0.3135099424,0.4992323488,-0.4598555906,0.7476553927
11754.148669999999,0.4576368281,1.149419925,-0.8927330784,1.525637565
11764.185669999999,-0.03455614915,0.6007283181,-0.4880279873,0.7747515447
11774.22367,-0.2511765039,-0.2966421139,0.1373429096,0.4122490202
11784.26067,-0.03608415451,-0.4370957422,0.1271455117,0.4566407069
11794.29867,0.3273456971,-0.1134997183,-0.224840133,0.4130260002
11804.33567,0.5520329254,0.6031590056,-0.3452922638,0.8875628903
11814.372669999999,0.5874498761,1.022075754,-0.2870893715,1.21332457
11824.410670000001,0.6249084552,1.34374629,0.01365105584,1.482009116
11834.44767,0.3483310618,0.65466362,0.2897131634,0.7961486676
11844.48467,0.1910436102,0.2813224089,0.1035027337,0.3554613546
11854.52267,-0.01552877951,0.5854565603,0.0726798673,0.5901549712
11864.55967,0.172003596,0.8665772402,-0.1363814811,0.8939470111
11874.59767,0.4193623431,1.236438189,-0.2193448466,1.323917041
11884.634670000001,0.3742149313,1.619212713,-0.1939970206,1.673177058
11894.67167,0.124110222,1.193303279,0.001375849843,1.199740787
11904.70967,0.0923539938,0.9214118439,0.04673620999,0.9272072689
11914.74667,0.329859269,0.9295026362,0.05431010842,0.9877914131
11924.78367,0.313347536,0.180778951,0.0650676696,0.3675615718
11934.82167,0.1018631744,-0.2698606968,0.07570740938,0.2982155493
11944.85867,0.09365397602,0.2687783772,0.1165132271,0.3075519718
11954.89667,0.3601975474,1.240945807,-0.1311145286,1.298799364
11964.93367,2.633991434,6.930336923,-2.796966491,7.924045829
11974.970669999999,3.14819821,11.3828823,1.189467432,11.86996184
11985.00867,-1.687527049,5.259626613,0.9783520299,5.609687366
11995.04567,-0.353357913,2.905659213,-0.7645199382,3.025261644
12005.08367,-2.934224616,1.720168984,0.06993386865,3.401991501
12015.12067,0.05510357559,2.672504997,-0.2643906996,2.686116492
12025.15767,-0.7888396776,2.990602884,-0.6660230058,3.163788914
12035.195670000001,-1.287240845,0.9391306615,-0.169978559,1.602450655
12045.232670000001,-0.1226830629,-2.648230281,0.6024911805,2.718670701
12055.26967,-0.3462259179,-1.136847827,-1.14046009,1.647101875
12065.30767,-1.634999318,1.950815914,-1.272074483,2.845536678
12075.34467,-1.614362301,1.987555139,0.1991386235,2.568306302
12085.382669999999,-1.314202502,-1.425790912,1.501352287,2.452359401
12095.41967,-0.9504575953,-2.003243803,-0.6119456897,2.300181059
12105.456670000001,-0.2966549778,-2.74613723,-0.2575293575,2.774093587
12115.49467,0.4866703369,-2.975163311,0.03555574894,3.01491442
12125.53167,0.8268323998,-3.588371342,0.09036813319,3.683507446
12135.56967,1.348789221,-3.815625132,-0.5878884903,4.089479232
12145.60821,1.15969129,-2.482261158,-0.5020037828,2.785410588
12155.645209999999,0.7065905495,-2.088377509,-0.2053010771,2.214213033
12165.68321,0.2789472699,-1.457226128,0.1459359046,1.490844343
12175.72021,0.03339973435,-1.990775785,-0.001591100469,1.991056579
12185.75721,-0.4001340303,-1.43381797,-0.1620696882,1.497400346
12195.79521,-0.7481793094,-1.12232042,-0.1271267275,1.35481977
12205.83221,-0.6632289138,-1.801682094,-0.2215632802,1.932620306
12215.870210000001,-0.6437138316,-2.585465099,-0.3376446173,2.685703104
12225.907210000001,-0.4878117134,-4.018046967,-0.0724599389,4.048198629
12235.94421,0.01299178228,-4.911695647,0.128345141,4.913389399
12245.98221,0.2202994046,-4.90422349,0.2270888259,4.914418501
12256.01921,0.252911519,-4.249110219,0.2472757532,4.263806654
12266.057209999999,-0.4043459259,-1.677836897,-0.1200305466,1.73004035
12276.09421,-0.3067107269,0.270051316,-0.006845408455,0.4087126655
12286.131210000001,-0.009717487693,0.1114789206,-0.02876252688,0.1155390075
12296.16921,-0.1084908472,0.1126588887,-0.1379277042,0.208533788
12306.206209999998,-0.1014794509,0.08085062027,-0.1697136801,0.2136296678
12316.24321,-0.04810899004,0.08631016552,-0.2036485809,0.2263551725
12326.28121,0.05199007943,0.1855233818,-0.1894433552,0.2702048823
12336.31821,0.1734263697,0.2371350002,-0.2566249394,0.3900847005
12346.35621,0.1433053154,0.1397034305,-0.3329368778,0.388459041
12356.39321,0.02199897945,-0.02333565295,-0.3097650931,0.3114208097
12366.43021,-0.08623035103,-0.08405430973,-0.2117697787,0.2436128888
12376.46821,-0.1029180121,-0.02465536952,-0.1310730133,0.1684640593
12386.50521,-0.1177509364,0.0329408741,-0.09720411301,0.1562018688
12396.543210000002,-0.06556512147,0.109012565,-0.04571879447,0.135176672
12406.58021,-0.04644735754,0.03841211379,-0.04699224494,0.07642721107
12416.61721,0.03134882346,-0.06946433723,-0.07210384347,0.1049142846
12426.655209999999,0.12955091,-0.08477234781,-0.1777652961,0.2357335142
12436.692210000001,0.1498734927,-0.01489870548,-0.2152816164,0.2627360075
12446.729210000001,0.1795795409,0.1069490826,-0.1204702572,0.241246763
12456.76721,0.2319359484,0.2287208569,-0.0373064784,0.3278708403
12466.80421,0.1660463065,0.2483224779,0.00483389318,0.2987621051
12476.842209999999,0.02035386533,0.2268719673,0.03616035104,0.2306355141
12486.87921,0.02172810718,0.3004574221,0.08020048298,0.3117352894
12496.91621,-0.01541062921,0.16146092,-0.006022705212,0.1623064668
12506.95421,-0.0816703999,-0.09714271724,0.01050159931,0.1273461634
12516.99121,0.03743592113,0.2386435819,0.1728483725,0.2970332763
12527.02921,0.5944006075,0.7255652028,0.1611907786,0.9517034269
12537.06621,0.4210891356,0.3410148793,0.0006128612906,0.5418556852
12547.10321,0.228038633,0.2079877996,-0.05249403633,0.3130753373
12557.14121,0.2248340665,0.5425005752,-0.3074221138,0.6628465792
12567.17821,0.07221647546,1.349833826,-0.566157825,1.465537874
12577.216209999999,-0.05293221205,2.119441427,-0.5983982027,2.202933088
12587.25321,-0.07468283102,1.324156364,-0.4298246565,1.394172456
12597.290210000001,-0.4027019812,0.2181444132,-0.3040329945,0.5497198673
12607.32821,-0.7510602325,-1.296299644,-0.07720020354,1.500148029
12617.365210000002,-0.9894528227,-2.575013786,0.1219220477,2.761263818
12627.40221,-1.313118282,-3.14978339,0.2324005097,3.420442227
12637.440209999999,-1.602839632,-2.827117658,0.2683895373,3.260938835
12647.47721,-1.081951243,-0.3689902979,-0.0157752762,1.143250275
12657.51521,-0.4237611669,0.4528007787,-0.1054868402,0.6290703818
12667.55221,-0.5346071264,0.3168489218,-0.1400251005,0.6370282942
12677.58921,-0.7074540371,0.04903124213,-0.1010463184,0.7163139226
12687.62721,-0.7468478984,-0.2937758088,-0.2044736961,0.8281880834
12697.664209999999,-0.7128232428,-0.4908012486,-0.3394261909,0.9296305611
12707.702210000001,-0.5976439118,-0.5593341243,-0.3636828534,0.8957109611
12717.73921,-0.2751655832,-0.4297276658,-0.2792770529,0.5817023613
12727.77621,0.3889670178,0.2462952483,-0.08782810271,0.4686901598
12737.81421,0.3595476294,2.1671588,0.3978328586,2.232514892
12747.85121,-1.051600393,1.596704441,-0.2620681125,1.929768938
12757.888210000001,-1.047489215,-0.6167824334,0.1037301173,1.220005805
12767.926210000001,-0.3103463794,-1.189362255,-0.5131165624,1.331985757
12777.96321,0.2758798206,-0.6682391006,-0.5145742732,0.8873780782
12788.001209999999,0.252288352,-0.1828576362,-0.1543812574,0.3477353883
12798.038209999999,0.05975181967,0.04926454604,0.02712632976,0.08205554958
12808.07521,-0.01077071741,0.03946402788,-0.002338959351,0.0409742429
12818.11321,-0.04605457082,-0.03532712281,-0.1222559968,0.1353349839
12828.15021,-0.08997227669,-0.06067655683,-0.1737354682,0.2048430326
12838.18721,-0.05801285774,-0.02952610016,-0.1173519371,0.134196719
12848.22521,0.02131353959,-0.003388461471,-0.02953786768,0.03658188443
12858.262209999999,0.07771972865,0.003105456233,-0.02051502921,0.0804416963
12868.30021,0.09843261302,-0.02918930054,-0.06409725107,0.1210349213
12878.33721,0.04096208453,-0.06556365967,-0.1661919022,0.1832927554
12888.37421,0.05112176791,-0.09558618844,-0.2707453805,0.2916388445
12898.41221,0.07004481956,-0.08373037398,-0.3247139385,0.3425729033
12908.44921,0.1706847565,-0.04230109692,-0.354331913,0.3955676598
12918.487210000001,0.256875785,0.04504753411,-0.3737944434,0.4557814555
12928.524210000001,0.2869038686,0.06289089739,-0.3741089505,0.4756328433
12938.56121,0.410614872,0.03883369803,-0.3547651186,0.5440320933
12948.599209999998,0.3968644135,-0.0117593354,-0.2773689602,0.4843275594
12958.63621,0.336525241,-0.07585358977,-0.2554221672,0.4292359356
12968.67421,0.3145502351,-0.1128027302,-0.2965291165,0.4467614837
12978.71121,0.2950228737,-0.1020385909,-0.3244976646,0.4502766976
12988.748210000002,0.309976543,-0.04523055196,-0.3362944952,0.4595924799
12998.78621,0.2718659994,-0.001803866029,-0.364732794,0.4549114052
13008.823209999999,0.2888824202,0.04585854292,-0.3875283104,0.4855247162
13018.860209999999,0.2536845209,0.06669334173,-0.3903905956,0.4703282418
13028.89821,0.1511781527,0.03789521992,-0.3591488492,0.3915083364
13038.93521,0.09318546787,-0.00642550528,-0.3381169993,0.3507818749
13048.97321,0.03959178954,-0.04634561598,-0.3344594197,0.339968424
13059.01021,-0.003333059102,-0.07919059575,-0.2980214721,0.3083813509
13069.04721,-0.02115975782,-0.09941728413,-0.2854663306,0.3030223716
13079.085210000001,-0.02810610384,-0.08316260934,-0.2910206008,0.3039719769
13089.12221,-0.005040153712,-0.06211087883,-0.2744624555,0.281447693
13099.16021,0.01629882127,-0.01130851507,-0.296383667,0.2970468181
13109.19721,0.02367157549,0.04406637132,-0.3020817786,0.3061953454
13119.23421,-0.002700536549,0.04068083346,-0.3209963518,0.3235751551
13129.27221,-0.04220549494,0.04114919543,-0.3227778523,0.3281159886
13139.309210000001,-0.1465101743,0.01330300033,-0.3805607682,0.4080057589
13149.34417,-0.08410927355,-0.003177961707,-0.3747854733,0.3841205805
13159.38217,-0.05145681337,-0.02789180338,-0.3429712115,0.3479296025
13169.41917,-0.02958822682,-0.05927556396,-0.3184732783,0.3252910768
13179.45717,0.05202180058,-0.0301698786,-0.2373672078,0.2448666589
13189.49417,0.1129296148,0.02629843712,-0.1731237763,0.2083663783
13199.53117,0.1100331965,0.08886189044,-0.1344789433,0.1951623071
13209.56917,0.06136799008,0.09736841977,-0.134526452,0.1770423838
13219.606170000001,-0.02347876355,0.04740980923,-0.1796486843,0.1872767794
13229.64417,0.0001698616147,0.03660532415,-0.2179397607,0.2209925743
13239.681170000002,-0.05566300794,-0.02165282428,-0.226601826,0.2343407834
13249.71817,-0.08906098813,-0.070754233,-0.197646414,0.2280397467
13259.756169999999,-0.03895809755,-0.09694566607,-0.1630671501,0.1936674753
13269.793169999999,0.00900310412,-0.09528856516,-0.1380932535,0.1680199786
13279.830170000001,0.09037953526,-0.08269015431,-0.1313596,0.1796147726
13289.86817,0.1589961724,-0.08553716362,-0.1312816858,0.2232291877
13299.90517,0.1993640336,-0.0843601191,-0.117666298,0.2463899456
13309.94317,0.2127518186,-0.03130657732,-0.1119724987,0.242448507
13319.980169999999,0.1755544639,0.01595529735,-0.1760241415,0.249115314
13330.01717,0.1246747707,0.04866228282,-0.2146947022,0.2529933425
13340.05517,0.07123268142,0.04671925306,-0.215198586,0.2314459222
13350.09217,0.02984199598,-0.06069000542,-0.1896292967,0.201328318
13360.13017,-0.006709826142,-0.1541741198,-0.1982423915,0.2512264452
13370.16717,-0.01236306041,-0.1879733652,-0.2119541122,0.2835689986
13380.20417,-0.06730773792,-0.1167922854,-0.2485854565,0.2827817156
13390.242170000001,-0.1039481454,0.01838423073,-0.2216977662,0.2455465259
13400.27917,-0.1257550438,0.1199000806,-0.1647989492,0.2394766252
13410.31617,-0.1824410221,0.1391578853,-0.1655522168,0.2829437754
13420.354169999999,-0.1438214783,0.1409506416,-0.2266458263,0.303183165
13430.39117,-0.09324101642,0.08215747297,-0.290417022,0.3158888794
13440.42917,-0.00174466297,0.01289311051,-0.3482755132,0.3485184489
13450.46617,0.07172647879,-0.05198759437,-0.3231083661,0.3350319597
13460.50317,0.02877502531,-0.08996350586,-0.372256114,0.3840521435
13470.54117,-0.07021716624,-0.05490360081,-0.377629559,0.3880063655
13480.578169999999,-0.1621158081,0.04440550983,-0.3238386834,0.36486282
13490.61617,-0.2318681207,0.1715362573,-0.2666773264,0.3928158721
13500.65317,-0.2590760192,0.2235571808,-0.2626282758,0.4313604154
13510.69017,-0.2222468928,0.3088967085,-0.3616643214,0.5249875611
13520.72817,-0.2204268008,0.3351319957,-0.3914776661,0.56049638
13530.76517,-0.1111312305,0.3263524014,-0.4061448218,0.5327378873
13540.803170000001,0.1268504465,0.1848421812,-0.3210893226,0.3916069724
13550.840170000001,0.3780805255,0.06993562281,-0.2339406663,0.4500712282
13560.87717,0.5630529535,-0.03123699546,-0.1288271709,0.5784469019
13570.915169999998,0.6098303863,-0.08089388967,-0.01598058656,0.6153798019
13580.95217,0.6429611488,-0.03507101476,0.06986077845,0.6476955637
13590.98917,0.6936474453,-0.04396404505,0.1625780305,0.7138005545
13601.02717,0.7375692442,-0.07511742532,0.1677373213,0.7601229023
13611.064170000001,0.7276907388,-0.07068231225,0.1418942361,0.7447575276
13621.10217,0.6645467301,-0.09760640144,0.1202032587,0.6823475577
13631.13917,0.6167776825,-0.06642320037,-0.03272277296,0.6212065124
13641.176169999999,0.541175523,0.0689807725,-0.2320058227,0.592837242
13651.21417,0.4719142304,0.2329168189,-0.4516256346,0.6934832364
13661.25117,0.4448824793,0.452245878,-0.56865941,0.8519508666
13671.28917,0.5043914934,0.5119757706,-0.6536017656,0.9714552158
13681.32617,0.5812257343,0.5290999264,-0.6742658257,1.035569645
13691.36317,0.5635694819,0.5344548064,-0.5883534171,0.9743778756
13701.401170000001,0.4769611084,0.5338659918,-0.5481397761,0.9016440597
13711.43817,0.503753489,0.4376412874,-0.5217793585,0.8470839233
13721.47517,0.542319677,0.36371494,-0.4756277239,0.807849566
13731.51317,0.5540593511,0.3711163455,-0.3591068955,0.7574079936
13741.55017,0.6576973017,0.3301016361,-0.2899442746,0.7909491217
13751.588169999999,0.6795478349,0.3062584448,-0.2238834554,0.7782694241
13761.625170000001,0.6590664272,0.2529435325,-0.1788971709,0.7282535162
13771.662170000001,0.6250558781,0.1277458745,-0.1804972614,0.6630181902
13781.70017,0.5697059885,0.02001443446,-0.2074891783,0.6066442533
13791.737169999999,0.539577479,-0.1128629565,-0.2121742599,0.5906774241
13801.77517,0.5483312725,-0.1563902146,-0.255482832,0.6248172221
13811.81217,0.5621217113,-0.08994187117,-0.3332649797,0.6596483193
13821.84917,0.5703412154,-0.1144358575,-0.4162901795,0.7153196356
13831.88717,0.5681039976,-0.1038424569,-0.4806645155,0.7513745966
13841.92417,0.548756365,-0.1987918836,-0.5622297386,0.8104036279
13851.96217,0.561185499,-0.316659472,-0.560482152,0.8540155901
13861.999170000001,0.6087676549,-0.3112110364,-0.4848809427,0.8381884606
13872.03617,0.5712142778,0.01928411722,-0.3537616633,0.6721643718
13882.07417,0.6777982749,-0.07734053671,-0.3098743629,0.7492757709
13892.11117,0.7636844442,-0.03763501883,-0.3722946326,0.8504314307
13902.14817,0.900815246,0.3262582612,-0.3154363076,1.008668739
13912.18617,0.7714880651,-0.1081805062,-0.2094040684,0.8066888622
13922.223170000001,0.8971811284,-0.2059167159,-0.2726995931,0.9600524669
13932.26117,0.93667812,-0.2098799586,-0.4069948973,1.04262186
13942.29817,1.010590873,0.05762255609,-0.5684079067,1.160905603
13952.33517,0.9603546656,0.1336281735,-0.6207906997,1.151311715
13962.373169999999,1.01396362,0.08770238757,-0.6136875021,1.188455418
13972.41017,1.091920599,0.05915978909,-0.4956509292,1.200608312
13982.44817,1.134730258,-0.04828279853,-0.1705100709,1.148484946
13992.48517,1.107137539,-0.1370376849,0.1418528853,1.12456885
14002.52217,1.03813484,-0.3261436558,0.05262320498,1.089432344
14012.56017,1.125202805,-0.5759694529,-0.06427608451,1.265683048
14022.59717,1.246547732,-0.6152288282,0.09565227111,1.393390511
14032.63417,1.156900853,-0.3159314936,0.196516732,1.215257634
14042.67217,0.8694928081,-0.1384965652,0.1375610107,0.8911352724
14052.70917,0.4295083952,-0.2348504931,0.1093306535,0.5015829019
14062.74717,-0.02215261504,-0.529333815,0.147735166,0.550009732
14072.78417,-0.3928041069,-0.6010271108,0.06764292955,0.7211825152
14082.821170000001,-0.7753615531,-0.5576384318,-0.2660670233,0.9914322062
14092.85917,-1.063068537,-0.4683280599,-0.4170690286,1.234257858
14102.89617,-0.8713466679,-0.4414419776,-0.00259265542,0.9767920746
14112.93417,-0.9056002419,-0.5399038267,0.6035963774,1.214881281
14122.971169999999,-1.279819266,-0.4799002844,0.7974537957,1.582458275
14133.008170000001,-1.698326856,-0.4165837097,0.7405147791,1.899004538
14143.04617,-2.143880157,-0.3081704843,0.5559988725,2.236140855
14153.08358,-2.23936168,-0.1456670058,0.1591272962,2.249729119
14163.12158,-1.951870751,0.004094805121,-0.1562142134,1.958116206
14173.158580000001,-1.626131284,-0.0710144341,-0.2616231394,1.64857292
14183.19558,-1.315114814,-0.2241196829,-0.2613389647,1.359431742
14193.23358,-1.01537733,-0.2808470303,-0.01732646942,1.053644335
14203.27058,-0.9109823115,-0.2737964576,0.2486201012,0.983191348
14213.30758,-0.9704280294,-0.2399124277,0.3532338059,1.060218211
14223.345580000001,-1.084008439,-0.1517042559,0.3435087168,1.147208227
14233.382580000001,-1.223435589,-0.02514770508,0.299376272,1.259782997
14243.42058,-1.310972646,0.08966763675,0.294079864,1.34654095
14253.457579999998,-1.355761003,0.1492443323,0.3185422754,1.400653758
14263.49458,-1.375182383,0.08857596159,0.3738697994,1.427848352
14273.53258,-1.28845458,-0.04834302485,0.4229045498,1.356945287
14283.56958,-1.07793289,-0.3124225795,0.5998073816,1.272523508
14293.60758,-0.8658589098,-0.5458024979,0.8732231855,1.345410997
14303.64458,-0.7332730025,-0.6282710427,1.116450984,1.476101826
14313.68158,-0.7196960601,-0.5954494518,1.199941038,1.520651493
14323.71958,-0.8457000491,-0.4766387075,1.073677433,1.447472369
14333.75658,-1.02581081,-0.3502628356,0.8176921785,1.357789516
14343.794580000002,-1.234711506,-0.2049127489,0.5724336416,1.376292851
14353.83158,-1.467946121,-0.05427444041,0.3135809129,1.502046776
14363.86858,-1.65653052,0.04341557622,0.1107275534,1.660794649
14373.90658,-1.732430595,0.09457812846,0.003073881269,1.735013037
14383.943580000001,-1.773064212,0.1155193466,-0.0831877615,1.778769694
14393.98058,-1.724476335,0.1052300012,-0.09342739642,1.730208271
14404.01858,-1.615561711,0.06557710826,-0.1241135842,1.6216486
14414.05558,-1.413015038,0.03820980012,-0.1490478476,1.421367914
14424.093579999999,-1.194480981,0.01807198942,-0.1206713466,1.200696875
14434.13058,-0.9066687474,0.02322163224,-0.1083577134,0.9134160366
14444.16758,-0.6114709689,0.04968203723,-0.0704811863,0.6175213747
14454.20558,-0.3524068634,0.01595471263,-0.02050620357,0.3533633465
14464.24258,-0.1330076377,-0.01463324189,0.0410363259,0.1399612214
14474.28058,0.1167677271,0.0435342747,0.1327545995,0.1820816269
14484.31758,0.2294679849,0.1332095128,0.1984229243,0.3313185586
14494.35458,0.1619405378,0.1489239049,0.2499135236,0.3329562081
14504.39258,-0.006449259594,0.1536589801,0.256479362,0.2990557444
14514.42958,-0.2102641207,0.1190580815,0.2372841225,0.3386585035
14524.46758,-0.4082846835,0.06018071294,0.1827190937,0.451336203
14534.50458,-0.6597877543,-0.04499900222,0.05335178632,0.6634690679
14544.541580000001,-0.8634275644,-0.09609138787,-0.1083711255,0.875491299
14554.57958,-0.9798935752,-0.0862715739,-0.2549467885,1.016185056
14564.61658,-1.022720264,-0.09260995567,-0.351773208,1.085485021
14574.65358,-0.9738811757,-0.04842664003,-0.369796629,1.04285149
14584.691579999999,-0.9666260967,-0.04298288226,-0.3955647236,1.045315737
14594.728579999999,-0.9872450602,-0.03382146478,-0.4267058978,1.076045828
14604.76658,-1.000744015,-0.05349149823,-0.4464565863,1.097120508
14614.80358,-1.097714167,-0.1022233629,-0.4799617167,1.202409771
14624.84058,-1.140143537,-0.14856664,-0.5071073788,1.256645226
14634.87858,-1.14573786,-0.2058880645,-0.4496725184,1.247922479
14644.915579999999,-1.165830136,-0.1739108115,-0.4023170882,1.245497457
14654.953580000001,-1.211280689,-0.1226570427,-0.436972366,1.293518654
14664.99058,-1.266591403,-0.07705402315,-0.5025407034,1.364821696
14675.02758,-1.259008441,-0.06399426699,-0.5639844515,1.381041629
14685.06558,-1.173310771,-0.06117649376,-0.6098166454,1.323736027
14695.10258,-1.042254934,-0.07508409619,-0.6534362894,1.232441461
14705.14058,-0.9335505174,-0.08631308913,-0.6134986371,1.120422731
14715.177580000001,-0.9067936586,-0.1084681892,-0.6280143499,1.108351078
14725.21458,-0.8157966574,-0.1360699707,-0.5503925622,0.9934642397
14735.252579999998,-0.6530613367,-0.1379422492,-0.4177326876,0.7874120725
14745.28958,-0.4856181304,-0.07490867972,-0.3684225333,0.6141428514
14755.32658,-0.3502762842,0.0104442966,-0.3336263376,0.4838482115
14765.36458,-0.3085793509,0.09511841118,-0.3224511391,0.4563370082
14775.40158,-0.2728601722,0.1594249195,-0.3189135371,0.4489708484
14785.43958,-0.2890066735,0.1509195596,-0.2797290426,0.4295927235
14795.47658,-0.3178375398,0.1469305891,-0.2306171272,0.4192774249
14805.513579999999,-0.404528359,0.1581736153,-0.2405579785,0.4965181033
14815.55158,-0.5200434664,0.1395975959,-0.2248716348,0.5835237338
14825.58858,-0.7593476374,0.1156684506,-0.2530885617,0.808728536
14835.62658,-1.103026947,0.06276284337,-0.365791871,1.163791782
14845.66358,-1.333379762,0.01053609788,-0.4575352693,1.409734415
14855.70058,-1.452026345,-0.05870955348,-0.4889336844,1.5332591
14865.738580000001,-1.589514704,-0.1502085382,-0.4473190141,1.65807536
14875.775580000001,-1.630031816,-0.1881277317,-0.4038040352,1.689808706
14885.81358,-1.566447292,-0.1932966703,-0.3351939762,1.613528966
14895.85058,-1.533924202,-0.2169954354,-0.2152523438,1.564079297
14905.88758,-1.47238138,-0.1755895472,-0.1211706805,1.48775702
14915.92558,-1.439291402,-0.08912501514,-0.02758599401,1.442312031
14925.96258,-1.519834897,-0.04075100005,0.0157085814,1.520462271
14936.00058,-1.765903274,-0.06625129223,-0.07703063428,1.768823712
14946.03758,-2.169102122,-0.1827412766,-0.3044709875,2.197976563
14956.074579999999,-2.313313902,-0.3317224842,-0.3726483526,2.366501175
14966.11258,-2.092370719,-0.4567581743,-0.2456257421,2.155684406
14976.14958,-1.423915856,-0.3158683437,-0.1452191456,1.465741374
14986.18658,-1.010767386,-0.1085436183,-0.1977511157,1.035634071
14996.22458,-0.6844848584,0.0572512579,-0.3314160901,0.762649233
15006.26158,-0.5190776525,0.06016551018,-0.3538407469,0.631082223
15016.29958,-0.604062839,-0.08955946326,-0.1931890815,0.6404957706
15026.336580000001,-0.4207697314,-0.1071724463,0.064980071,0.4390393032
15036.37358,0.1395690908,-0.2025884807,0.1878313509,0.3095193694
15046.41158,0.9836080921,-0.1679536682,0.7037971153,1.221074811
15056.44858,1.512154726,-0.1853684306,1.336464753,2.026600948
15066.486579999999,1.752296949,-0.6395485675,1.766359649,2.568967375
15076.52358,2.066406158,-1.279089534,2.21338981,3.287126237
15086.560580000001,2.020345155,-1.669349663,2.724319514,3.780269786
15096.59858,1.579614345,-1.702586991,2.885883345,3.704363187
15106.63558,1.137379339,-1.278125328,2.77878282,3.26326065
15116.67358,0.8119515283,-0.8640874958,2.351149773,2.633214336
15126.710579999999,0.4115651907,-0.6520078146,1.480151891,1.668936703
15136.74758,-0.03697311401,-0.6675462055,0.5539834835,0.8682641577
15146.78558,-0.4201779932,-0.7492183596,0.2791140617,0.9032067071
15156.823830000001,-0.7246537681,-0.6280377388,0.393371433,1.036482305
15166.86083,-0.7909629478,-0.4465050817,0.4406702913,1.009544193
15176.89883,-0.6098188381,-0.2852470601,0.4071736394,0.7867879468
15186.93583,-0.415024842,-0.2860650855,0.4650793469,0.6858408354
15196.973829999999,-0.2214532795,-0.1820261621,-0.004748670012,0.286701288
15207.01083,0.1498984165,-0.07467829943,-0.1750735304,0.2422748949
15217.04783,0.4923363619,-0.02791811585,-0.2000923043,0.5321761407
15227.08583,0.6735390899,-0.01281008005,-0.4622598195,0.8170086563
15237.12283,0.6887420699,0.1093382549,-0.7408708745,1.017452773
15247.16083,0.510793829,0.219217962,-1.073601419,1.208961065
15257.197830000001,0.1455079615,0.2017195845,-1.297521712,1.321145696
15267.23483,-0.1778741274,0.163264786,-1.374588745,1.395632048
15277.27283,-0.01070712894,0.3120647299,-1.523595534,1.555262804
15287.30983,0.2919429991,0.3670876139,-1.588059332,1.655873327
15297.347829999999,0.5470241639,0.334102301,-1.479304776,1.612204206
15307.38483,0.7796909047,0.2135525948,-1.233987328,1.475210949
15317.421830000001,0.9747574541,0.07877310455,-1.006430944,1.403303439
15327.45983,1.065043288,-0.04800388634,-0.7997388875,1.332742986
15337.49683,1.080188307,-0.1256777143,-0.5970211834,1.240578881
15347.53483,1.113735903,-0.0565273726,-0.5604721387,1.248091352
15357.571829999999,1.26799912,0.1312512803,-0.6237914908,1.41921263
15367.60883,1.366632292,0.2018622565,-0.4917590225,1.466376189
15377.64683,1.507837434,0.3288503319,-0.3078795853,1.573691872
15387.68383,1.613030013,0.5108782482,-0.141138922,1.697875909
15397.72083,1.654041653,0.6515599179,-0.09274297982,1.780164424
15407.75883,1.655802542,0.7477290738,-0.07363734886,1.818296809
15417.79583,1.760986204,0.8045897377,-0.04770874813,1.936675807
15427.833830000001,1.542647224,0.6434188396,0.08774858057,1.673752692
15437.87083,1.506183549,0.5805092311,0.07851582706,1.616089288
15447.90783,1.52958089,0.5503218108,0.06943553969,1.627050426
15457.94583,1.477689629,0.4919092959,0.09131991372,1.560089972
15467.98283,1.352380289,0.5146111107,0.09821392715,1.450311352
15478.02083,1.181137854,0.5334882617,0.1209350377,1.301661108
15488.057830000002,1.115670162,0.6600787264,0.1179383397,1.301665582
15498.09483,1.012669485,0.7278684211,0.06982101738,1.249066411
15508.132829999999,0.9473536009,0.7556280774,0.03510434389,1.212305634
15518.169829999999,0.8458690336,0.7734591615,-0.02728573948,1.146506872
15528.20783,0.6952171303,0.7513835835,-0.007301564366,1.023697934
15538.24483,0.5201990023,0.7726534152,0.02106254786,0.9316887533
15548.28183,0.2850413112,0.7980484575,-0.002781520486,0.8474300127
15558.31983,0.07007522509,0.8034243876,-0.05108726934,0.8080910795
15568.35683,-0.2140267309,0.7606935203,-0.1458242959,0.8035712779
15578.393829999999,-0.5574618093,0.609834187,-0.2530423504,0.8641133234
15588.43183,-0.7920679253,0.35057917,-0.3118723565,0.9206202906
15598.46883,-0.7724415998,0.2132684201,-0.2408128989,0.8367438655
15608.50683,-0.6688094965,0.1518516058,-0.08325324118,0.6908662352
15618.54383,-0.5998327074,0.06396620035,0.0539420262,0.60564073
15628.58083,-0.4816662166,0.01356086254,0.2130418405,0.5268520352
15638.618830000001,-0.3113822502,0.1147194475,0.3297683448,0.4678318273
15648.65583,-0.2151519179,0.206447643,0.3837111019,0.4859477202
15658.69383,-0.1626097151,0.3245631534,0.4395677988,0.5700903523
15668.730829999999,-0.001689991504,0.4653559202,0.4965087157,0.6804997379
15678.76783,0.2326706511,0.591188001,0.589834663,0.8669162671
15688.80583,0.4804227697,0.7038574147,0.6831201182,1.092187893
15698.84283,0.655783508,0.5508778811,0.8006245945,1.172398478
15708.88083,0.7641378227,0.4850949508,1.00297904,1.35099618
15718.91783,0.6763690692,0.4581743699,1.144247771,1.405952286
15728.954829999999,0.4624987148,0.460969339,1.155911212,1.327602547
15738.992830000001,0.2469300366,0.555855031,1.065094305,1.226529713
15749.02983,0.1024069289,0.6949333942,0.8943301722,1.137209769
15759.06783,0.0391675375,0.8050007969,0.6694778332,1.047740878
15769.10483,0.08579586636,0.8863186097,0.3819312094,0.9689133384
15779.14183,0.1209442836,0.8941035926,0.09299645662,0.9070265129
15789.179830000001,0.1577051072,0.8280142683,-0.04860907316,0.8442993375
15799.216830000001,0.4317876399,0.5270504773,0.00262978524,0.6813440301
15809.25383,0.7681623881,-0.3020776856,-0.00211815387,0.8254264772
15819.291829999998,1.145952088,-1.549327961,0.005055502653,1.927082996
15829.32883,1.537290152,-2.762640996,0.147345449,3.164989252
15839.366829999999,1.556205748,-3.383466779,0.5179598111,3.76004071
15849.40383,1.21685177,-2.89637208,1.245777946,3.379594968
15859.440830000001,1.017829579,-2.162627208,1.750944049,2.962893612
15869.47883,0.8867836095,-1.933385949,1.546306558,2.629720587
15879.51583,0.8026433457,-1.907813151,1.121809811,2.35423971
15889.55383,0.7759592848,-1.869356598,0.8719816755,2.203850935
15899.59083,0.6088336553,-1.693615023,1.177504541,2.150703887
15909.62783,0.1346954,-1.309895589,1.800706193,2.230809741
15919.66583,-0.6361906578,-0.6653768885,2.115217983,2.306861954
15929.70283,-1.283399663,0.3137306017,1.739465819,2.184326651
15939.74083,-1.419002148,1.466870525,0.9514542532,2.251786276
15949.77783,-1.01616188,2.484019416,0.3250275685,2.703438615
15959.81483,-0.1439410904,3.046416897,-0.2053643002,3.056722009
15969.85283,0.8608006297,2.982231426,-0.7346074833,3.189722583
15979.88983,1.773049302,2.525735207,-1.226698481,3.32081787
15989.927829999999,2.344587004,1.634539434,-1.525216967,3.239613276
15999.964829999999,2.449636618,0.4662891358,-1.646174224,2.98798171
16010.001830000001,2.060124933,-0.6596062714,-1.566753979,2.670938637
16020.039830000002,1.208026129,-1.48996118,-1.019983621,2.172481998
16030.076829999998,-0.0748384035,-1.798324038,-0.133190217,1.804801863
16040.11483,-1.188491313,-1.685138315,0.7508649355,2.194538879
16050.15183,-1.432978602,-1.201784665,1.331168783,2.295588026
16060.188830000001,-0.8460532209,-0.5966177255,1.487558559,1.812343574
16070.22683,0.1579638099,0.03895999789,1.185485478,1.196597788
16080.26383,1.147452922,0.4985517329,0.6889610481,1.428239953
16090.30083,1.804919405,0.5846724486,0.2527587605,1.914017482
16100.338829999999,2.064516484,0.5284052771,-0.1147153544,2.134150899
16110.375829999999,1.961497607,0.4536866319,-0.3994851355,2.052533263
16120.41383,1.612341357,0.4286506087,-0.5744649643,1.764481791
16130.450830000002,1.23535967,0.3289672762,-0.7141668599,1.464365831
16140.487830000002,0.8520080984,0.6328938514,-0.8969056515,1.389572659
16150.524539999999,0.5776233378,0.5100830269,-1.206380723,1.431498468
16160.56154,0.4082238724,0.05972463012,-1.48475555,1.54101032
16170.599540000001,0.3998593939,-0.08916477621,-1.554155276,1.607245007
16180.636539999998,0.4014316371,-0.2490861243,-1.51910955,1.590875571
16190.673539999998,0.2766447826,-0.3443162173,-1.319494379,1.391456578
16200.71154,0.001150293499,-0.3238006765,-1.141257212,1.186303598
16210.74854,-0.2142246591,-0.332132374,-1.006201222,1.08103886
16220.78654,-0.2942067851,-0.2819199944,-0.9257890695,1.011494892
16230.82354,-0.3429075865,-0.1048879391,-0.916590303,0.9842382212
16240.86054,-0.3541847093,-0.05338390946,-0.8804286363,0.9505005175
16250.898540000002,-0.1842209145,-0.04077380419,-0.8416301677,0.8625202535
16260.935539999999,0.05258645888,-0.04030251861,-0.7588277469,0.7617146304
16270.973539999999,0.1928321456,-0.03513007164,-0.6364641613,0.6659617008
16281.010540000001,0.499418071,0.2269374561,-0.4711622053,0.7231271274
16291.047540000001,0.9653424136,0.4438334888,-0.200194119,1.081180756
16301.085539999998,0.9033390505,0.08130261004,-0.1985211575,0.9284622795
16311.12254,0.8825673285,-0.1247521001,-0.2833034456,0.9352801816
16321.15954,0.8021724987,-0.2175187612,-0.3182639845,0.8899927488
16331.197540000001,0.6833678209,-0.2536399359,-0.4093116372,0.8359789543
16341.234539999998,0.6320164767,-0.2274759847,-0.4944048876,0.8340421712
16351.27254,0.562355673,-0.1886995894,-0.5431987693,0.8043110971
16361.30954,0.5861537311,-0.1347812444,-0.5259652706,0.7989878886
16371.34654,0.6168881218,-0.1044950062,-0.4892044105,0.7942235935
16381.38454,0.6784211496,-0.07470812023,-0.4288739723,0.8060827771
16391.42154,0.7450425705,-0.05969539404,-0.3291654968,0.8167018405
16401.45954,0.7039940203,-0.04674147248,-0.2993751391,0.7664318755
16411.49654,0.6241775532,0.01520860791,-0.3916406937,0.7370287326
16421.53354,0.5349403812,0.0292939657,-0.4981863185,0.7315797672
16431.57154,0.4533633905,-0.03592646241,-0.5776452649,0.7351891774
16441.60854,0.40128246,-0.102323935,-0.6596740991,0.7788887709
16451.646539999998,0.2928647761,-0.1191510522,-0.6254860139,0.7008562648
16461.683539999998,0.123370732,-0.08956940353,-0.6371248966,0.655111555
16471.72054,0.06944434706,0.1149223459,-0.5744608712,0.589944875
16481.758540000003,-0.08352875467,0.04972764552,-0.5607789713,0.56914229
16491.79554,-0.3139237791,-0.1834973216,-0.5592312499,0.6670524694
16501.83354,-0.3188950818,-0.2352568746,-0.5287502629,0.6607697865
16511.87054,-0.2133152344,-0.1644102556,-0.5818300806,0.6411398942
16521.90754,-0.2450633496,-0.2711751509,-0.4188992071,0.5559393433
16531.94554,-0.1747573422,-0.2062336349,-0.3801467854,0.4664590221
16541.98254,-0.1255990693,-0.1645149207,-0.2955235598,0.3607969786
16552.01954,-0.1153366942,-0.1073045933,-0.2958334075,0.3351629958
16562.05754,-0.1026117642,-0.03538150191,-0.2657349197,0.2870471606
16572.09454,-0.1634133053,-0.01070976019,-0.2628914005,0.3097264854
16582.13254,-0.1847905064,0.02163762152,-0.2828088077,0.3385211066
16592.16954,-0.05990099676,0.1439163494,-0.3844047278,0.4148096429
16602.20654,-0.2855757467,-0.2724299634,-0.2121352297,0.448076944
16612.24454,-0.3041237725,-0.2858738816,-0.402580213,0.5799016926
16622.28154,-0.3602359197,-0.2649396801,-0.3357746047,0.5592025904
16632.31954,-0.4830434552,-0.1994496953,-0.2134169394,0.5644979633
16642.35654,-0.6212179119,-0.1142019689,-0.1576848064,0.6510132733
16652.393539999997,-0.6905023011,-0.02413906038,-0.1458278042,0.7061457856
16662.43154,-0.6728042411,0.01757556081,-0.10900204,0.6818034115
16672.46854,-0.6498474146,0.05338332474,0.006648905464,0.6520702797
16682.50654,-0.6431696751,0.1062737292,0.1023537376,0.6598769765
16692.54354,-0.6237429589,0.1055551064,0.2024300212,0.6642101119
16702.58054,-0.6224135213,0.04584041655,0.2767206319,0.682696304
16712.61854,-0.6541041876,0.02321812391,0.3160805976,0.7268413264
16722.655540000003,-0.6671556115,-0.02237144709,0.3331778562,0.7460593646
16732.69354,-0.6887986417,-0.05204782069,0.4126473641,0.8046305932
16742.73054,-0.7665576929,-0.04828396797,0.3911834049,0.861955042
16752.76754,-0.8559926835,-0.02609027624,0.387417798,0.939945066
16762.805539999998,-0.8127537663,0.02597684026,0.3962605423,0.9045805096
16772.842539999998,-1.005771598,-0.02320642948,0.4125035226,1.087324331
16782.880540000002,-1.182360068,-0.1502757812,0.4150259749,1.262063668
16792.917540000002,-1.24608127,-0.2516518825,0.3085990852,1.30815924
16802.954540000002,-0.9347445188,-0.06458249688,0.1302689481,0.9459853134
16812.99254,-1.08630603,-0.3060011673,0.1147714877,1.134402926
16823.02954,-1.093676884,-0.2595649195,0.3800344823,1.186561958
16833.06754,-1.042799164,-0.08771875978,0.5280766271,1.172173025
16843.10454,-0.9274299444,0.06458658993,0.6238558102,1.119595374
16853.14154,-0.952540739,0.1653715378,0.6410121256,1.159990582
16863.17954,-1.100230077,0.1413301259,0.5472467601,1.236915294
16873.21654,-1.261190768,-0.001295158267,0.3552031481,1.310256886
16883.253539999998,-1.43859266,-0.1710082537,0.1533765596,1.456817433
16893.29154,-1.583750081,-0.2423846304,-0.0334431682,1.60253957
16903.32854,-1.634804167,-0.2761423606,-0.1511505612,1.664838058
16913.36654,-1.619876372,-0.3404377592,-0.2050326534,1.667913582
16923.40354,-1.448301523,-0.263707087,-0.2453251952,1.492415217
16933.44054,-1.177269044,-0.1424305719,-0.2171649681,1.205574342
16943.47854,-0.8163990667,-0.02093654037,-0.03562821787,0.8174442763
16953.51554,-0.5126176487,0.1068917799,0.1832464761,0.5547810175
16963.55354,-0.3684621482,0.1356770378,0.349545967,0.5256947748
16973.59054,-0.1860569403,0.1618357265,0.3608457112,0.4370556197
16983.62754,-0.04379206382,0.3058386147,0.182897982,0.3590357572
16993.665539999998,0.004874823689,0.4305772662,0.01266558073,0.4307910898
17003.70254,-0.02359724276,0.5397570616,-0.07919885494,0.5460466775
17013.74054,-0.1889328202,0.6821712613,-0.08663636707,0.7131332978
17023.777540000003,-0.4334459833,0.7266966391,-0.06895204805,0.848951006
17033.814540000003,-0.5488573026,0.8684226215,-0.008839235902,1.027365719
17043.85254,-0.5846060096,1.078196746,0.1087868625,1.231302964
17053.88954,-0.6148315099,1.223305927,0.1286983129,1.375157603
17063.92754,-0.5706846663,1.275604008,-0.0296495495,1.397757372
17073.964539999997,-0.4716989797,1.192387605,-0.2090573285,1.299227884
17084.001539999997,-0.2920133118,1.033869588,-0.2724229467,1.108319612
17094.03954,-0.03523875676,0.8465967196,-0.126737376,0.8567555883
17104.076540000002,0.2076057572,0.479565239,0.05285992585,0.525240079
17114.11454,0.6029425125,0.03787241578,0.1781458037,0.6298491253
17124.15154,1.077824278,-0.3068548608,0.3155916973,1.164243617
17134.18854,1.457243962,-0.6584450144,0.3984362912,1.647987039
17144.22654,1.668577685,-0.9308369708,0.2193933785,1.923211484
17154.26346,1.726399046,-1.099496983,-0.03783206999,2.047139113
17164.301460000002,1.728368242,-1.279650866,-0.1177148299,2.153745552
17174.338460000003,1.619233763,-1.493609843,-0.1703254451,2.209479372
17184.37546,1.414545254,-1.70726184,-0.1943610097,2.225636419
17194.41346,1.209944893,-1.876498387,-0.05151280046,2.233353176
17204.45046,1.099398749,-1.911489295,0.2425920604,2.218404797
17214.48746,1.149924101,-1.744767051,0.5652281177,2.164721766
17224.525459999997,1.436421735,-1.389858018,0.6861608166,2.113250902
17234.56246,1.733619334,-0.9334465832,0.6625648163,2.077438484
17244.60046,1.649130722,-0.5694164783,0.5775819688,1.837788942
17254.63746,1.365987198,-0.4295499104,0.3170066504,1.466604026
17264.67446,1.15551404,-0.2812686145,-0.003149748892,1.189258025
17274.71246,1.05113934,-0.2086286545,-0.1845824187,1.087423789
17284.74946,1.048941956,-0.01445548654,-0.2374982585,1.07558989
17294.78746,0.8998163223,0.281784339,-0.2911166413,0.9868235539
17304.82446,0.718085006,0.5597264725,-0.4891863938,1.033558478
17314.86146,0.5812369171,0.8482275081,-0.7419289282,1.26798454
17324.89946,0.5578454598,1.086082885,-0.9596736842,1.552978162
17334.93646,0.5721057589,1.162562127,-1.153866148,1.735010889
17344.97446,0.743637777,1.210644951,-1.210938627,1.866823693
17355.01146,0.8681010246,1.153155711,-1.233604335,1.898722502
17365.04846,0.8906397021,1.14308973,-1.257496936,1.918643206
17375.08646,0.7772887954,1.068548255,-1.227529517,1.803552594
17385.12346,0.7070469978,0.9780280942,-1.141501626,1.661168375
17395.16146,0.61325627,0.86483477,-1.036914234,1.482974565
17405.19846,0.554347765,0.7155050683,-0.8321918115,1.229549575
17415.23546,0.494273179,0.409447183,-0.5765302008,0.8627514379
17425.27346,0.5308518253,0.1169571769,-0.3218009287,0.6316949258
17435.31046,0.5789825962,-0.2334945238,-0.1237893561,0.6364466545
17445.34846,0.5623022441,-0.5096696287,0.10163104,0.7656864975
17455.385459999998,0.4621251874,-0.7637872821,0.3196403825,0.9482091938
17465.422459999998,0.2693567399,-0.9873900712,0.5057677817,1.141618699
17475.460460000002,0.0898394718,-1.081916744,0.5946663634,1.237838057
17485.497460000002,-0.08594369128,-1.010292445,0.6825103998,1.222251034
17495.53546,-0.2961790144,-0.8607405496,0.6830816728,1.138067166
17505.57246,-0.4155293836,-0.6600489056,0.5378179787,0.9474056178
17515.60946,-0.418497211,-0.4792576754,0.2932121372,0.7005720466
17525.647459999996,-0.3991438774,-0.380678882,0.1670091967,0.5763022799
17535.68446,-0.3417910241,-0.3335099781,0.1435989918,0.4986689083
17545.72246,-0.254027387,-0.2798524189,0.2183917505,0.4365114504
17555.75946,-0.1799009185,-0.2638678855,0.3613444787,0.4822452009
17565.79646,-0.1149094089,-0.170950951,0.5118781221,0.5517677154
17575.83446,-0.06146885455,-0.08978458107,0.6275385328,0.6369021127
17585.87146,-0.03570404895,-0.02491557062,0.6248194313,0.6263344845
17595.909460000003,-0.01423044182,0.05405809343,0.5685668778,0.5713082159
17605.94646,-0.01853991285,0.1800848866,0.4226174515,0.4597605954
17615.98346,0.01159656353,0.2862966353,0.1619209497,0.3291179691
17626.02146,0.08344714947,0.3456868047,-0.09831449926,0.3689560061
17636.05846,0.1292722902,0.3621373612,-0.2730697949,0.4716162701
17646.09646,0.1571780538,0.3362207472,-0.4166223013,0.5579636847
17656.13346,0.1796116275,0.3206268078,-0.5535038656,0.6644007946
17666.17046,0.1917744939,0.3281153369,-0.5984853262,0.7089582614
17676.20846,0.1876516952,0.3233130187,-0.6346269661,0.7365431779
17686.24546,0.1919683291,0.3284497976,-0.5998771097,0.7103405209
17696.28346,0.1920895857,0.3178406096,-0.5484793532,0.6623825654
17706.32046,0.2040590554,0.3361564279,-0.5115888311,0.6452630271
17716.357460000003,0.2110621195,0.2929747403,-0.3939245796,0.5343762636
17726.39546,0.211489624,0.2404644048,-0.2283191532,0.3932945801
17736.43246,0.2448123944,0.190157885,-0.01028291345,0.3101594235
17746.46946,0.2269522204,0.10781564,0.1907396829,0.3154570481
17756.50746,0.2066549268,0.07082147598,0.2651895024,0.3435802853
17766.544459999997,0.1667643446,0.003239942193,0.2613588452,0.3100472381
17776.58246,0.1185021575,-0.05327982903,0.2262550861,0.260907772
17786.61946,0.08185751081,-0.08328715503,0.1449529146,0.1861417463
17796.656460000002,0.0843437469,-0.0626090616,0.06572986677,0.1239119753
17806.69446,0.04355751738,-0.01341702104,-0.03863942429,0.05975181071
17816.73146,-0.01936246991,-0.01964839876,-0.1498619445,0.1523796811
17826.76946,-0.09195696786,-0.1119420201,-0.1523930579,0.2102635106
17836.80646,-0.1469286887,-0.2060745907,-0.06638226986,0.2616512607
17846.84346,-0.2174982959,-0.2241956967,0.05812468573,0.317722675
17856.88146,-0.3089464098,-0.1720379484,0.1639955418,0.3897941477
17866.91846,-0.3599793001,-0.05949541926,0.2210909714,0.4266216345
17876.956459999998,-0.3320543137,0.006501519084,0.1853473806,0.3803366779
17886.993459999998,-0.2607323161,0.02996756494,0.148293575,0.301447143
17897.030459999998,-0.192365355,0.008063895106,0.1177143914,0.2256681948
17907.068460000002,-0.1882882378,0.03878516614,0.05499350175,0.1999525814
17917.10546,-0.1968403754,0.0791215986,-0.01292760909,0.2125405463
17927.14346,-0.211538229,0.08477117836,-0.1063111514,0.2514689562
17937.18046,-0.1915082994,0.04628538966,-0.1185786098,0.2299535882
17947.21746,-0.123577833,-0.05754478812,-0.04820152223,0.1445900073
17957.25546,-0.08355218008,-0.1601599145,0.06615305901,0.1923756539
17967.29246,-0.1040918407,-0.1884534216,0.1395094492,0.2565398406
17977.33046,-0.1727628569,-0.1274640387,0.1638430756,0.2700715448
17987.36746,-0.2008600438,-0.04053056002,0.1399900903,0.2481626661
17997.404459999998,-0.1915018675,0.07029288769,0.0450535275,0.2089111669
18007.44246,-0.1466769661,0.175633986,-0.0315229243,0.2309872814
18017.479460000002,-0.09034839883,0.207235263,-0.03956935085,0.2295103939
18027.51746,-0.09167980984,0.2034889519,-0.05769155324,0.2305238738
18037.55446,-0.03384704635,0.1737143451,-0.03445713021,0.1803041599
18047.59146,0.05912952974,0.1612375563,0.01083606005,0.1720792581
18057.62946,0.1309700292,0.0915913707,0.04362899959,0.1656671885
18067.66646,0.1885959475,0.09614167392,0.0621885737,0.2206333419
18077.70446,0.1653835246,0.1473053956,0.05244316556,0.2275980567
18087.74146,0.1120863001,0.210700323,0.01044722021,0.2388872311
18097.77846,-0.01702007532,0.2955925387,-0.08711890854,0.3086330121
18107.81646,-0.1538968156,0.3907483721,-0.2732620952,0.501039612
18117.85346,-0.1723810337,0.4267526025,-0.4182210032,0.6218856905
