Time (ms),Linear Acceleration x (m/s^2),Linear Acceleration y (m/s^2),Linear Acceleration z (m/s^2),Absolute acceleration (m/s^2)
11.7465416,0.3863471729,0.1415616757,-1.716531431,1.76515835
21.734541749999998,0.0310943234,0.1042868453,-1.353331046,1.357699349
31.72254143,-0.2738654548,-0.008727554083,-0.6881804448,0.7407231481
41.710541580000005,-0.3645493376,-0.04754780352,0.1528690213,0.3981531751
51.698541729999995,-0.2747252879,-0.005284128785,0.7934560543,0.8396870941
61.68754166,-0.3162966523,0.1124469271,1.087784425,1.138403636
71.67554181000001,-0.33424088,0.2299163201,1.101503162,1.173834612
81.66354150000001,-0.1670444262,0.2395308968,0.8856999743,0.9326003085
91.65154165,0.006413226128,0.1340719771,0.5316697776,0.5483513262
101.6395418,0.1120703664,0.03679535866,0.1820097899,0.2168899008
111.6285417,0.1442981726,0.04776239634,-0.1060731697,0.1853502804
121.6165419,0.1094037437,-0.008563247323,-0.2637357384,0.2856554709
131.6045416,-0.01423329234,-0.0966562289,-0.23903593,0.2582308832
141.5925417,-0.09696291536,-0.08335907578,-0.1376715231,0.1878935623
151.58054190000001,-0.198341648,0.03924212605,-0.07458298981,0.215504005
161.5685415,-0.3301054367,0.1385874894,-0.07583955646,0.3659613776
171.55754149999999,-0.2270242873,0.1358524543,-0.06024269342,0.2713394525
181.5455416,-0.05032727748,0.09547713786,-0.0002344733477,0.1079294848
191.53354180000002,0.05005976737,0.02639842451,0.02549152136,0.06206991853
201.5215415,0.06619720548,-0.006322594285,0.04729344964,0.08160095337
211.50954159999998,0.08424375951,-0.02419051588,0.10033939,0.1332298212
221.49854150000002,0.08356957555,-0.01529923975,0.1065619969,0.1362842613
231.4865417,0.05167769194,-0.05759448946,0.0481763792,0.09115192029
241.4745418,0.0280385685,-0.0613171193,-0.03034354091,0.07393700641
251.46254150000001,-0.01815268099,-0.03145100355,-0.09635334313,0.1029691807
261.4505417,-0.05090410531,-0.02744098306,-0.1326212829,0.1446811673
271.4395416,-0.1481538266,-0.01629385114,-0.1189890844,0.1907182427
281.4275417,-0.1043268988,-0.02475447983,-0.03798643649,0.1137534854
291.4155414,-0.006864338815,-0.07608104646,0.03115630388,0.08249945485
301.4035416,0.01990538388,-0.1129123655,0.0708787787,0.1347932782
311.3915417,-0.01719373763,-0.09892348677,0.0616249752,0.1178096703
321.38054170000004,-0.04626258552,-0.06313355684,-0.07260663092,0.1067604593
331.3685418,-0.05958078861,-0.02290559024,-0.1600570035,0.1723159331
341.3565415,-0.03185475379,-0.01006627411,-0.207260406,0.2099355404
351.3445416,-0.01687594146,-0.03205209732,-0.1854625708,0.188966927
361.3325418,-0.08524831116,-0.100235602,-0.05876100898,0.1441086626
371.3205415,-0.1359182355,-0.1185359251,0.01095651269,0.1806781045
381.3095419,-0.0890142104,-0.05682791948,0.07328958571,0.1285468998
391.29754160000005,-0.1404659075,-0.05140111864,0.1271576446,0.1963206885
401.2855417,-0.2046522555,-0.1295389232,0.1810245341,0.3023785049
411.2735419,-0.1938872391,-0.09122679681,0.2124199891,0.3017231209
421.2615415,-0.1534917498,-0.06274237812,0.2027837777,0.2619495825
431.2505415,-0.1393982059,-0.05110583425,0.180445075,0.2336751831
441.23854159999996,-0.1302022898,-0.1039994547,0.1629238933,0.2330508912
451.2265418,-0.1054668134,-0.1242007077,0.1032425326,0.1928939736
461.2145415,-0.1310056973,-0.1670727852,0.0512292105,0.2184038467
471.2025416,-0.1936802477,-0.1895839807,-0.09367765725,0.2867570881
481.19154149999997,-0.2224169737,-0.1594439229,-0.2511168623,0.3714180304
491.1795417,-0.2530707094,-0.1506274912,-0.3489559829,0.4566220572
501.1675418,-0.2994633955,-0.152397151,-0.3652474952,0.4962952242
511.15554149999997,-0.2802760497,-0.1611346453,-0.3195778173,0.4545866466
521.1435417,-0.1763388678,-0.1788020074,-0.2109453213,0.3279687222
531.1325416,-0.0926500091,-0.2076229334,-0.1259958029,0.2599350861
541.1205417,0.01359974653,-0.2314447823,-0.09411327481,0.2502178029
551.1085414,-0.01954314888,-0.2776544505,-0.0967538774,0.2946781997
561.0965416,-0.07154009879,-0.2955250034,-0.1656878722,0.346273713
571.0845417,-0.1194016054,-0.293994787,-0.2012325114,0.3757448627
581.0725419,-0.1528707755,-0.2901636913,-0.2961415923,0.4418871852
591.0615418,-0.1765718794,-0.2984813556,-0.3348220932,0.4820524685
601.0495415,-0.1929016909,-0.3062385643,-0.3711303788,0.5183925913
611.0375416,-0.1489689285,-0.3306001112,-0.3675413579,0.5163088464
621.0255418,-0.1189762205,-0.3427702135,-0.383310129,0.527800545
631.0134167,-0.08996379822,-0.3329737884,-0.3542833811,0.4944509509
641.0024166000001,-0.04340125054,-0.3389809254,-0.3526566857,0.4910788881
650.9904168,-0.008925189972,-0.342033172,-0.3334824961,0.4777833452
660.9784164,-0.01511505246,-0.3339654762,-0.2563846189,0.4213009339
670.9664166,0.007860704362,-0.3177663499,-0.1652978629,0.3582745139
680.9544167,0.06777390718,-0.277192082,-0.08634641826,0.298134964
690.9434167000001,0.09342330337,-0.1999595726,0.01662831187,0.2213328828
700.9314168000001,0.0388898313,-0.08290547803,0.1206660658,0.1514794927
710.9194165,-0.042749286,0.06638387784,0.2575587398,0.2693897272
720.9074167,-0.1895158607,0.2132472239,0.5003146684,0.5759387184
730.8954168,-0.3134563673,0.305047925,0.8247866052,0.9335856013
740.8844167000001,-0.344259207,0.345952853,1.053877006,1.161401964
750.8724169,-0.3111911559,0.2184540233,1.032697222,1.100466105
760.8604166,-0.2528941235,0.07331297457,0.7505012387,0.7953504506
770.8484167,-0.1232824025,-0.01840498835,0.4878068894,0.5034807402
780.8364169,0.1061643863,0.02808037609,0.3371703351,0.3546029036
790.8254168,0.2147363636,-0.01508683965,0.2344090283,0.3182560465
800.8134165,0.101897673,-0.1065190199,0.03721226513,0.1520335162
810.8014166,-0.08207034945,-0.1893500921,-0.1486297899,0.2543222643
820.7894167999999,-0.01555447072,-0.1366962075,-0.1467534184,0.2011575515
830.7774165000001,0.1644880235,0.0368419902,0.09378056824,0.1928948862
840.7654166,0.2118887696,0.1868819824,0.3849368244,0.47749145
850.7544165,0.1587954667,0.1788287584,0.6145996678,0.659491074
860.7424166999999,0.03014561266,0.1518932672,0.714457832,0.7310474104
870.7304168,-0.05580699563,0.1811796315,0.6355625206,0.6632346472
880.7184165,-0.0863230294,0.2154014844,0.4175140017,0.4776687205
890.7064167,0.03102532625,0.1549629092,0.02947113633,0.1607626262
900.6954165999999,0.2733351123,0.022203632,-0.2165872997,0.3494497722
910.6834168,0.5716296494,0.005325790197,-0.29985282,0.6455234572
920.6714164,0.6188350984,0.404427056,-0.2244225687,0.7725824306
930.6594166,0.5506200188,1.148107664,-0.2305925506,1.294027255
940.6474167,0.4442337307,1.400377305,-0.279824937,1.495560831
950.6364167,0.3196652332,1.193110905,-0.3189486569,1.275706761
960.6244168,0.2523903859,0.9120103982,-0.4817614532,1.061865326
970.6124165,0.09764440835,0.560033159,-0.6417067748,0.8572975881
980.6004167,-0.1797314224,0.3139134733,-0.4727047008,0.5952266687
990.5884168,-0.6029721871,0.6347494653,-0.1151924872,0.8830354756
1000.577417,-0.7698055288,0.4700579587,1.21454212,1.512834293
1010.565417,-0.4309286839,-0.05418176204,1.5861011,1.644491378
1020.5534169999999,-0.2822190794,-0.1313667628,0.5562111264,0.6373975622
1030.541417,-1.045859304,-0.1103319892,0.4406134272,1.140234635
1040.529417,-0.9428565073,-0.2493586046,0.5550282347,1.122147249
1050.517417,-0.3530984429,-0.149583617,-0.3144954175,0.4959446909
1060.506416,-0.1863384837,0.1303597261,-0.9556619096,0.9823468706
1070.4944169999999,-0.1195378456,0.2283192994,-1.364572903,1.388696585
1080.482417,0.06775110304,0.23963717,-1.403481445,1.425403926
1090.4704160000001,0.6958101842,0.06319392934,-1.200070846,1.388637937
1100.458417,1.087879735,-0.08354867175,-0.9061202055,1.418279424
1110.447417,1.174638674,0.1297058612,-0.7390038586,1.393817179
1120.435417,1.00303342,0.3090003504,-0.3982538581,1.122569995
1130.423417,0.3695346737,0.2333012733,-0.2928601348,0.5260726354
1140.411417,0.05546931893,0.09757965043,-0.3497389251,0.367309065
1150.399417,-0.02415484786,0.1282253462,-0.3122810769,0.3384444815
1160.3884170000001,0.02678755671,0.2142497291,-0.5654111356,0.6052357159
1170.376417,-0.1264840454,0.1125166552,-0.9009185225,0.9166855489
1180.364416,-1.47205876,0.42785758,-1.010119953,1.835854411
1190.3524169999998,-0.1707796276,-0.5045902987,-0.349865225,0.6373246632
1200.3404170000001,0.7050689578,-0.8866856687,-0.4099599838,1.204741009
1210.3294170000001,-0.1172583085,-0.7505942094,-0.7120025861,1.04119588
1220.317417,0.2099682516,-0.4311320208,0.002903142571,0.4795517848
1230.305417,0.4569900164,-0.06582020625,0.3740656811,0.5942199159
1240.2934169999999,-0.7275582263,0.07539918803,0.8309928399,1.107056959
1250.2814170000001,0.516262072,0.2675972396,1.234871719,1.364933322
1260.2704170000002,0.3768594807,0.9586830197,0.1473855025,1.040585742
1270.258417,0.01237592429,0.7489320653,0.08444899678,0.7537798319
1280.246417,0.03466200203,0.3380079487,-0.105891906,0.3558987546
1290.234417,0.1498113661,0.2543703993,-0.7866750383,0.8402412519
1300.2224170000002,0.3869798416,0.2721072701,-1.225176451,1.313336629
1310.2114170000002,0.7255554087,0.2176153133,-1.277873898,1.485512967
1320.199416,1.287441258,0.08576396249,-0.9847143853,1.623121336
1330.187417,1.731436276,0.1658912091,-0.7701864749,1.902256207
1340.175417,1.930124956,0.1976154238,-0.9356305182,2.154028475
1350.163416,1.730784019,-0.5636914694,-0.1727635878,1.828444325
1360.151417,0.1621446057,-0.8709219407,1.154818075,1.455472667
1370.140417,-0.8222160231,0.4148395218,-0.9951013792,1.355860528
1380.1284170000001,-0.09121027842,0.3325184365,-0.4772637749,0.5887856454
1390.116417,0.1946492775,0.07782179911,-0.01100621402,0.2099183422
1400.104417,0.6027328898,-0.06073393263,0.8459482634,1.040482586
1410.092417,0.754997309,0.007830518112,1.091079916,1.32685253
1420.081417,0.8277989446,0.2199381197,0.9778696346,1.299943419
1430.069417,1.227691046,-0.01278113633,0.7952792162,1.462825244
1440.0574159999999,1.494085806,-0.3516085723,0.5346004021,1.625336449
1450.0454169999998,1.15622126,-0.4939903931,0.2508321029,1.282104073
1460.033417,0.3990370926,-0.2617140636,0.3259308171,0.5778890464
1470.0224170000001,0.05143985644,0.1105897783,0.5003813267,0.5150316786
1480.010417,0.2290694971,0.3531638586,0.426392414,0.5991727933
1489.998417,0.3793398696,0.5304445667,0.07383746982,0.6562942533
1499.9864169999998,0.2573957486,0.8470829156,-0.2370040226,0.9165003786
1509.974417,0.3299099936,0.8277065586,-0.2910802424,0.9373721024
1519.963417,0.3734808134,1.104092309,0.04379272163,1.166372817
1529.951417,0.2665828939,1.295489366,0.4709651542,1.403982661
1539.939417,0.3142702266,0.5942406131,0.9176129079,1.13749775
1549.9274169999999,0.3531906096,-0.01452828437,0.730019027,0.8110995361
1559.915417,0.609082966,-0.001321470737,0.2488370329,0.6579541585
1569.904417,1.148994029,0.3337038133,0.09766428888,1.200451509
1579.8924160000001,1.162402206,0.7106070019,0.09755845428,1.36589123
1589.880417,1.064467264,0.7055734263,0.1432602918,1.285086739
1599.868417,1.018270386,0.4224486863,0.2351294053,1.127219282
1609.8564159999999,0.9572475283,-0.01735080846,0.6405958039,1.151949159
1619.844417,0.8762264617,-0.5197219426,0.9210633498,1.37340504
1629.832417,0.7131264941,-0.8226407502,1.081447213,1.534540737
1639.820416,0.727857019,-0.8361071071,1.046698964,1.524608034
1649.808417,1.009521782,-0.9047860171,0.6835857028,1.518242859
1659.796417,1.173264432,-1.071556721,0.3088166016,1.618688026
1669.784416,0.9849490048,-1.123069594,0.2417379284,1.513224068
1679.773417,0.9859489518,-1.089008832,0.03048036575,1.469341561
1689.761417,1.089448543,-0.9426096086,-0.6682993269,1.588091619
1699.749417,0.9833104688,-0.6189111122,-1.238940797,1.698506621
1709.7374169999998,0.4512541171,-0.2840656301,-1.43130659,1.527403718
1719.725417,-0.3866559058,-0.1445000477,-1.266754248,1.33230979
1729.714416,0.2217160387,-0.01670798019,-1.073802563,1.096580641
1739.702417,0.3268211288,-0.204454181,-0.6889604634,0.7894808943
1749.690417,0.4176085074,-0.3400990592,-0.1149375486,0.5507039818
1759.6784169999999,0.5553571406,-0.2756535333,0.1345695752,0.6344410096
1769.6664170000001,0.3983240247,-0.3309073824,0.3542371881,0.627411914
1779.655416,0.3202783138,-0.511280829,0.5545171881,0.8194361453
1789.643417,0.3839479141,-0.6067114815,0.7387606144,1.030185453
1799.631417,0.5476917698,-0.6163936666,0.792106517,1.143389768
1809.619416,0.5666049543,-0.5723557274,0.7572834241,1.105491039
1819.6074170000002,0.4560867678,-0.537133489,0.8578830153,1.110176019
1829.596417,0.2681426021,-0.594216274,0.9736812741,1.17177159
1839.584417,-0.002022332624,-0.6334463402,1.002761816,1.186081623
1849.572417,-0.2971839681,-0.5452292515,1.158545675,1.314466176
1859.560417,-0.4752916552,-0.3757147421,1.442478281,1.564547
1869.548417,-0.5487743452,-0.4617403675,1.62656734,1.777661037
1879.536417,-0.5584574074,-0.6589181272,1.692072528,1.899778201
1889.525417,-0.4855007841,-0.7836525395,1.664440341,1.902678103
1899.513416,-0.2921149803,-0.8022322134,1.468648079,1.698774519
1909.501417,-0.06562056039,-0.7453139544,1.27537012,1.478637174
1919.489417,0.06952902205,-0.6727745665,1.076360135,1.27122423
1929.477416,0.06152235657,-0.6023401031,0.8728325915,1.062278369
1939.466417,-0.01516815249,-0.5457362781,0.636038484,0.8382142395
1949.4544170000001,-0.2133822946,-0.5240615999,0.3755654919,0.6791332733
1959.442417,-0.4363095841,-0.5635966714,0.1601388645,0.7305146933
1969.430417,-0.5751221182,-0.5138691721,0.02133648992,0.7715453472
1979.418417,-0.5798901937,-0.4125595828,-0.05434636116,0.7137447534
1989.407416,-0.612833699,-0.2799317218,-0.113141284,0.6831748397
1999.395417,-0.6686142725,-0.1611111834,-0.1302975994,0.6999852308
2009.383417,-0.6608476353,-0.1074949202,-0.2070732951,0.7008238755
2019.3714169999998,-0.6032509166,-0.02476032704,-0.3528958368,0.699328402
2029.3594170000001,-0.4358430494,0.04569313981,-0.3301314569,0.5486654769
2039.3484160000003,-0.2034343901,0.1895820804,-0.3506522602,0.4475309194
2049.336417,-0.1434441502,0.3062666309,-0.5926889813,0.6823896995
2059.324417,-0.05362883471,0.2983085704,-0.63635131,0.7048454049
2069.3124159999998,0.03624447785,0.3106375708,-0.6812965178,0.7496494566
2079.300417,0.1190967828,0.3399490781,-0.6968945503,0.7844816337
2089.289417,0.1034359293,0.3205383687,-0.5592405689,0.6528352404
2099.2774170000002,0.04776250597,0.2194318239,-0.4869871098,0.5362723445
2109.265417,0.06426013257,0.2249043792,-0.3960962355,0.4600038828
2119.253417,0.05956511077,0.2992572811,-0.2026136237,0.3662720345
2129.2414169999997,-0.07846079014,0.3200548039,-0.03480730534,0.3313649372
2139.229417,-0.2547588371,0.2870553115,-0.02090555012,0.3843694303
2149.218417,-0.3745993126,0.2770863935,-0.08767841399,0.4741192031
2159.206416,-0.4736171588,0.257220186,-0.08449928284,0.5455415346
2169.1944169999997,-0.5527291095,0.2006150454,-0.1140131038,0.5989614786
2179.182417,-0.5996307957,0.1492188969,-0.187314384,0.6456857199
2189.170416,-0.6260829415,0.05487948105,-0.1577713269,0.6479841037
2199.1594170000003,-0.632012676,-0.06064790547,-0.0983373034,0.6424861215
2209.147417,-0.59168231,-0.1253020307,-0.09884308755,0.6128282882
2219.135417,-0.4816935524,-0.213750523,-0.1354238534,0.544111739
2229.123417,-0.4905414494,-0.30089494,-0.1851158309,0.6045134816
2239.111417,-0.4872268822,-0.3463843775,-0.2245675796,0.6385943701
2249.100416,-0.4142645578,-0.367017155,-0.1758515024,0.5807240884
2259.088417,-0.3901006833,-0.3260853298,0.04106090248,0.5100942885
2269.0764169999998,-0.5037825058,-0.2962991747,0.369328267,0.6913706552
2279.064417,-0.702875521,-0.32550207,0.6757691449,1.027934596
2289.0524170000003,-0.8339981626,-0.3481930675,0.949818787,1.31108622
2299.041416,-0.886851218,-0.2537849468,1.093659123,1.430734832
2309.029417,-0.9374370886,-0.1452708569,0.9342014587,1.33139937
2319.017417,-0.9643818623,-0.03704942018,0.637483331,1.156628736
2329.0054160000004,-0.9624370784,0.1307150906,0.3578887743,1.035111559
2338.993417,-0.9661821469,0.2809758152,0.08347660482,1.009665139
2348.981417,-0.9114733315,0.3757508487,-0.0863230294,0.9896585268
2358.970417,-0.87432809,0.4694230972,-0.2044239217,1.01321113
2368.958417,-0.8373993418,0.5756779692,-0.3067782623,1.061487486
2378.9464169999997,-0.8186951222,0.6663030875,-0.3683634764,1.117995151
2388.9344170000004,-0.8063020948,0.6664470752,-0.3669326627,1.108564094
2398.922417,-0.6890015401,0.5652192007,-0.340517866,0.9540169203
2408.9114170000003,-0.4866443168,0.5274290845,-0.2470460308,0.7589702705
2418.8994159999997,-0.176481613,0.620739098,-0.02204400301,0.6457156693
2428.887417,-0.2468891061,0.6883524992,0.3531408352,0.8120910314
2438.875417,-0.6183994078,0.7855552965,0.9253633922,1.362282041
2448.863416,-0.8751366869,0.8304623513,1.313016248,1.783127479
2458.852417,-1.186898531,0.7541590375,1.435323628,2.009387442
2468.840417,-1.452848464,0.6500531635,1.449665093,2.152874046
2478.8284169999997,-1.565653094,0.7111581751,1.411405592,2.224653076
2488.816417,-1.567335923,0.7844145048,1.165900303,2.105034804
2498.8044170000003,-1.536640526,0.7614392596,0.75008901,1.871813926
2508.793416,-1.491215846,0.792775877,0.4687917441,1.752707617
2518.781417,-1.544653989,0.917469578,0.2819293499,1.818568264
2528.769417,-1.765444413,1.067741558,0.04698003888,2.063752198
2538.757417,-2.080314053,1.219412705,-0.07217452168,2.41244338
2548.745417,-2.411232106,1.32146986,-0.2818995291,2.764017042
2558.733417,-2.66422534,1.450889793,-0.5618039882,3.085255512
2568.722417,-2.673037386,1.628559048,-0.7393944526,3.216214794
2578.710417,-2.529508415,1.761205913,-0.8697271353,3.202605873
2588.698416,-2.415831818,1.827002145,-0.9786636865,3.18307443
2598.6864170000003,-2.369112419,1.798842978,-1.016398693,3.143500599
2608.674417,-2.247018756,1.68694145,-0.9464408505,2.964897136
2618.663417,-1.976300418,1.517917595,-0.7419713205,2.600068963
2628.651417,-1.637794872,1.391434719,-0.5763957149,2.225015649
2638.639417,-1.26421641,1.291273085,-0.3075413239,1.833087825
2648.627417,-0.9612851769,1.215494924,-0.0746233356,1.551472121
2658.615417,-0.7470757936,1.088274714,0.0836496824,1.322672055
2668.604417,-0.6954862484,0.9456504531,0.1790709794,1.187443606
2678.592416,-0.6903781208,0.774561654,0.1712017965,1.051607227
2688.5804169999997,-0.6461259542,0.6457273203,0.09121773362,0.9180213483
2698.568417,-0.4584265311,0.4931888129,-0.1596576387,0.6920120311
2708.556416,-0.07294416144,0.3301191777,-0.5307342231,0.6292680969
2718.5454170000003,0.4022380047,0.1947353777,-0.8094867808,0.9246545993
2728.533417,0.8313312475,0.1221992058,-0.9522529829,1.269972453
2738.521417,1.107180663,0.05577527449,-0.9279461074,1.445698405
2748.509417,1.242219769,-0.100500627,-0.8667801386,1.518063945
2758.497417,1.251065145,-0.3229626243,-0.6940481257,1.466687306
2768.486416,1.519027981,-0.3483376399,-0.2612863398,1.580207477
2778.474417,1.836488814,-0.3233752915,0.05137129784,1.865449478
2788.4624169999997,1.884216566,-0.5238850871,0.08828126192,1.957682618
2798.450417,1.806444212,-0.7274697872,0.02057284355,1.947530802
2808.4384170000003,1.849545939,-0.8188937813,-0.1125577319,2.025852031
2818.426417,2.017255194,-0.8727295344,-0.3264108735,2.222052973
2828.415417,2.285445487,-0.8565694383,-0.5494125688,2.501764667
2838.403417,2.721600559,-0.7290274854,-0.8069666308,2.930833639
2848.391416,3.017016512,-0.6351871294,-1.08356332,3.268020928
2858.379417,3.196573395,-0.5620538105,-1.304820791,3.498077079
2868.367417,3.2661193,-0.5017639008,-1.529156821,3.641101877
2878.356417,3.326389768,-0.4946469623,-1.71917028,3.776915535
2888.344417,3.407382768,-0.4986031884,-1.811246384,3.890947948
2898.332417,3.538699245,-0.5238312927,-1.838013768,4.021826225
2908.320417,3.722486881,-0.5730062301,-1.924546713,4.229553731
2918.308417,3.863171474,-0.6474177504,-2.063868905,4.427504764
2928.297417,3.854030814,-0.7545043887,-2.32980612,4.566270573
2938.2854159999997,3.802994562,-0.8202693388,-2.552886168,4.653260922
2948.273417,3.733179392,-0.830619349,-2.567231727,4.606217061
2958.261417,3.590996157,-0.7604727879,-2.622020137,4.510938024
2968.249416,3.341795427,-0.722534591,-2.598390954,4.294332132
2978.238417,3.184625779,-0.8560209695,-2.574613836,4.183688523
2988.226417,3.17578128,-1.080622024,-2.652939044,4.276846534
2998.2144169999997,3.160150504,-1.46909773,-2.607846487,4.352661558
3008.202417,3.285985508,-1.719483983,-2.231920221,4.328486317
3018.190417,3.566899781,-1.76991651,-1.734653122,4.3433167
3028.178417,3.545188777,-1.804953465,-1.336615026,4.196755914
3038.167417,3.258352736,-1.882379663,-1.085309299,3.916390178
3048.155417,2.729620015,-1.9290517,-1.060574992,3.506691489
3058.143417,2.286374464,-1.94506927,-1.088192561,3.192955638
3068.131417,1.991066392,-1.996705739,-0.8763526154,2.952824596
3078.119417,1.795856805,-2.175724094,-0.5590569663,2.876007943
3088.108417,1.624587035,-2.451404086,0.01598453343,2.940904713
3098.0964169999997,1.594218058,-2.681129056,1.010807,3.27898079
3108.084416,1.588606047,-2.670436252,1.949089816,3.667949026
3118.072417,1.518646743,-2.683431397,2.654504929,4.068597843
3128.060417,1.39450363,-2.758859894,3.217556128,4.461907185
3138.049417,1.048915059,-2.824756553,3.624436968,4.713386863
3148.037417,0.6790356919,-2.806751221,3.784235525,4.760187013
3158.0254170000003,0.5260060184,-2.667854122,3.654558315,4.555208494
3168.013417,0.3879721141,-2.569980795,3.335039554,4.228216229
3178.001417,0.05950404391,-2.484174952,2.8232392,3.761029846
3187.990417,-0.318546807,-2.290742334,2.265527678,3.237528095
3197.9784160000004,-0.6588470104,-2.09323406,1.76964403,2.81910415
3207.966417,-1.079949448,-1.800476983,1.320649204,2.480347253
3217.954417,-1.576173405,-1.451204373,0.9136157513,2.329165188
3227.942416,-2.216092247,-1.076686117,0.600575121,2.53594328
3237.931417,-2.880751829,-0.7876732311,0.394400543,3.012426265
3247.919417,-3.359234748,-0.6399893014,0.2286354876,3.427290268
3257.9074170000004,-3.729639487,-0.5351085252,0.2329448855,3.775025186
3267.895417,-3.792176043,-0.4554092216,0.2790028185,3.829600407
3277.883417,-3.695599337,-0.4025761199,0.4966075337,3.750485439
3287.871417,-3.723458103,-0.4240682188,1.183301032,3.929907815
3297.860417,-3.886839541,-0.4985925172,1.990537219,4.395265013
3307.848417,-3.955579993,-0.5774955761,2.601634989,4.76955122
3317.836417,-3.990400162,-0.6028601033,3.040711768,5.052985436
3327.824417,-4.150935468,-0.624903485,3.341193164,5.365104042
3337.8124169999996,-4.269270249,-0.7523140217,3.421541508,5.522643492
3347.8014169999997,-4.126199992,-0.8079353683,3.268208218,5.325361104
3357.7894170000004,-3.720160858,-0.75962845,2.953781798,4.810557047
3367.777416,-3.505237384,-0.7164543638,2.645811288,4.449754302
3377.765417,-3.385615046,-0.5248207878,2.510053559,4.247139622
3387.753417,-3.231524541,-0.1470988427,2.402154304,4.029234944
3397.742417,-2.933914713,0.1014515305,2.200591425,3.668889556
3407.7304169999998,-2.487938805,0.3271457224,1.923109467,3.161520811
3417.718417,-1.938919169,0.6581596702,1.72413515,2.67679355
3427.706417,-1.377982907,0.9421653664,1.581070156,2.299194491
3437.6944169999997,-0.8080384254,1.079879282,1.485379887,2.006344628
3447.6824170000004,-0.3943496722,1.257410982,1.53040754,2.019589384
3457.671416,-0.1681741083,1.403278547,1.647809106,2.170886469
3467.6594170000003,-0.04187425017,1.361642278,1.716273569,2.191213844
3477.647417,0.04626141608,1.330932702,1.740236628,2.191334182
3487.6354159999996,0.04963175118,1.295029044,1.636671329,2.087643785
3497.623417,-0.06300842643,1.114866974,1.365631834,1.764043292
3507.612417,-0.1897111577,0.8605823824,1.021708549,1.349251911
3517.600417,-0.1228359675,0.6354917693,0.7340214461,0.9786347363
3527.588417,-0.02201067388,0.4254287928,0.5776668996,0.7177556509
3537.5764169999998,-0.003717659712,0.1104327075,0.3782645667,0.3940726916
3547.5644169999996,-0.01948058367,-0.2145860901,0.06704242051,0.2256576375
3557.5534169999996,0.03780224919,-0.5536327967,-0.3410499626,0.6513473426
3567.5414170000004,0.255970636,-0.8944019468,-0.7025686884,1.165795253
3577.529417,0.5347723103,-1.146827855,-0.8798059809,1.541185945
3587.517417,0.8359945482,-1.384778249,-0.9566986209,1.879300384
3597.505417,1.11098033,-1.718722383,-0.9774819642,2.267984769
3607.494417,1.097811815,-2.015050794,-0.9044344532,2.466499982
3617.482417,0.8922047094,-2.219219192,-0.769789449,2.512675638
3627.47125,0.6412547851,-2.19474187,-0.5685347182,2.356126334
3637.45925,0.3434905905,-1.976056297,-0.4374723029,2.052843465
3647.4472499999997,0.08675806224,-1.759185846,-0.573797797,1.852432378
3657.4362499999997,-0.1140876558,-1.557574727,-0.8466329724,1.776469086
3667.42425,-0.1616901308,-1.345732882,-0.9943196064,1.681015219
3677.4122500000003,-0.07819247603,-1.111077539,-1.041172761,1.524679665
3687.40025,0.1236563319,-0.9121273425,-0.9799448115,1.344454912
3697.38825,0.3361964813,-0.7270505418,-0.8935551238,1.200029718
3707.37625,0.4769933411,-0.5542211728,-0.9620201719,1.208373521
3717.36525,0.5570303214,-0.4017114629,-1.164843126,1.352225716
3727.35325,0.7302985239,-0.2053145988,-1.417125338,1.607399839
3737.34125,1.01295059,-0.04716086403,-1.586136768,1.882584099
3747.32925,1.281472566,0.1508875461,-1.652679836,2.096733085
3757.31725,1.47588547,0.2115013915,-1.643801424,2.219246242
3767.3062499999996,1.557828058,0.07987881303,-1.593808315,2.230119689
3777.2942500000004,1.504567525,0.04845470667,-1.411068208,2.063294643
3787.28225,1.472944613,0.02781096563,-1.349828564,1.9980932
3797.27025,1.452456554,-0.1547566487,-1.408315923,2.02902277
3807.25825,1.356923868,-0.3281026192,-1.362257406,1.950548372
3817.24725,1.448010331,-0.5157638893,-1.172069115,1.933000859
3827.23525,1.622963994,-0.6451035686,-0.8887639153,1.959610175
3837.22325,1.531237552,-0.7819716842,-0.3211863863,1.749093723
3847.21125,1.282948696,-0.9532459863,0.2732883346,1.621518357
3857.1992499999997,1.068682156,-1.085224514,0.6259578842,1.64669884
3867.1882499999997,1.011907446,-1.088974626,0.8773559976,1.726144827
3877.1762500000004,0.8674388275,-1.052286344,0.9826509029,1.680880563
3887.1642500000003,0.594428528,-0.9699022186,0.6790161037,1.324808838
3897.15225,0.5338525432,-0.8584395971,0.3080710816,1.056799352
3907.14025,0.4340142596,-0.8009954542,0.08738839209,0.9152042538
3917.12825,0.5041217905,-0.844148929,0.1595249069,0.9960795098
3927.11725,0.6970854619,-0.8812098243,0.4530890465,1.211506739
3937.10525,0.7182591069,-0.7848233713,0.8797983795,1.380539408
3947.09325,0.6756212103,-0.649789381,1.27541222,1.582834985
3957.0812499999997,0.390509221,-0.4704055756,1.500833493,1.620580152
3967.06925,0.1825518268,-0.2935772958,1.527112049,1.565753496
3977.0582499999996,0.1352683175,-0.1314101784,1.322996276,1.336370195
3987.0462500000003,-0.08707322717,0.04460577697,1.035829575,1.040439489
3997.03425,-0.3235521698,0.3826426328,0.8466095835,0.9837932597
4007.0222500000004,-0.2899727798,0.613029398,0.8607849884,1.095828477
4017.0102500000003,-0.6206597221,0.2722422677,1.778045894,1.902835133
4026.9992500000003,-0.6164397866,0.7736035877,0.6682735991,1.193754633
4036.98725,0.05050590992,1.250032088,0.1418575448,1.259068954
4046.97525,0.2115967011,1.159523329,0.9116581035,1.490096645
4056.96325,0.08359881163,1.040520796,0.556128096,1.182772484
4066.9512499999996,-0.1866127181,0.8197416276,0.3398103529,0.906791993
4076.93925,-0.6188827533,0.7104861107,0.6802498662,1.162130051
4086.92825,-0.7363872296,0.9436245391,1.064470991,1.601808951
4096.916249999999,-1.072954132,1.180149382,1.260125259,2.032707259
4106.9042500000005,-1.48500625,1.194384721,1.281119687,2.296315761
4116.89225,-1.709234691,1.151665841,1.088936327,2.331008314
4126.88025,-1.876079727,1.194065463,0.9265655798,2.40914741
4136.86925,-1.818316838,1.447178273,0.8462786311,2.473214224
4146.85725,-1.856219659,1.843672411,0.779896946,2.730003412
4156.84525,-2.215397159,2.116265804,0.6258479565,3.127019538
4166.83325,-2.84578314,2.27912684,0.4438217944,3.67285701
4176.82125,-3.370468419,2.394677469,0.3224564016,4.147109315
4186.8102499999995,-3.602145628,2.491554723,0.2481827295,4.386900127
4196.79825,-3.728433791,2.394233665,0.1326382399,4.432963601
4206.78625,-3.601208904,1.987937255,-0.1846363592,4.117607398
4216.77425,-2.940934296,1.644677629,-0.5461790586,3.413556884
4226.76225,-2.094852131,1.596333727,-0.6918630213,2.723116094
4236.75125,-1.412435287,1.685915995,-0.4029813319,2.235996452
4246.73925,-0.7763915402,1.734426835,0.1589939797,1.906908323
4256.72725,-0.2488469732,1.703457642,1.078994306,2.031728689
4266.71525,0.2721118748,1.627311106,2.133434399,2.696985102
4276.70325,0.6858199239,1.464948838,3.064351476,3.465064796
4286.69125,0.7800776249,1.190575114,3.445618588,3.728039385
4296.680249999999,0.6727081275,0.958740761,3.45631373,3.649359488
4306.668250000001,0.5584950489,1.029476429,3.389447311,3.586096975
4316.65625,0.5132568955,1.288538342,3.198623428,3.48639578
4326.64425,0.477538594,1.547805346,3.016887288,3.424230338
4336.63225,0.1553657824,1.629493872,2.792995647,3.237315784
4346.62125,-0.4542836326,1.345273291,2.220574284,2.635732156
4356.60925,-1.144462071,0.8036071862,1.258269353,1.881175087
4366.59725,-1.44924117,0.2666692865,0.3265418512,1.509318409
4376.58525,-1.072824908,-0.2684789997,-0.6694629228,1.292754757
4386.5732499999995,-0.408388837,-0.7452972168,-1.578684492,1.792901031
4396.56225,0.1157111353,-0.9578204092,-1.924920934,2.153167343
4406.550249999999,0.3912009466,-1.046125645,-1.618982332,1.966855571
4416.5382500000005,0.3194029856,-1.220760342,-0.9146167946,1.558460125
4426.52625,0.1511668968,-1.404237198,-0.3114256293,1.446277795
4436.51425,-0.06388960183,-1.691709124,0.1256502324,1.697571684
4446.50325,-0.3378117746,-2.20220321,0.5520672047,2.295341798
4456.49125,-0.4785893387,-2.705516623,0.6163754672,2.815810126
4466.47925,-0.3834364289,-3.001364392,0.4970560151,3.06631316
4476.46725,-0.2266217065,-2.997348817,0.3761332566,3.0293454
4486.45525,0.2618453336,-2.932254981,0.08768835425,2.945228599
4496.443249999999,0.9446972108,-2.880709729,-0.3153824401,3.048016969
4506.43225,1.377364857,-2.756268116,-0.7227684796,3.164892123
4516.42025,1.463372721,-2.782093805,-1.01889253,3.304489015
4526.40825,1.489612101,-2.981661907,-1.342037149,3.593092769
4536.39625,1.460152075,-3.018428907,-1.427759085,3.644372806
4546.38425,1.441972497,-2.855745626,-1.332340711,3.465501339
4556.37325,1.41519985,-2.711503587,-1.258219067,3.307288548
4566.36125,1.26033342,-2.498043086,-1.150188249,3.025159929
4576.34925,0.937840181,-2.082315701,-1.015858995,2.499510428
4586.33725,0.3906127167,-1.675849721,-0.8818010509,1.933552087
4596.32525,-0.2969496775,-1.298618942,-0.8595418704,1.585371405
4606.314249999999,-0.5791824979,-0.8451524574,-0.9110330361,1.371027438
4616.302250000001,-0.3183937562,-0.2172378024,-0.7493364733,0.8426576986
4626.29025,0.1274207693,0.3772059648,-0.6068912834,0.7258356716
4636.27825,0.3914634866,0.7211309668,-0.468978855,0.9451003646
4646.26625,0.4703909576,0.8749323267,-0.2213884485,1.01773625
4656.25425,0.2887986588,0.9633407655,0.2637000704,1.039696024
4666.2432499999995,-0.3130049622,0.9664587933,0.8270301819,1.309959399
4676.23125,-1.035758824,0.8938448533,1.163587729,1.796020981
4686.21925,-1.486055825,0.9065189856,1.268003798,2.153595184
4696.2072499999995,-1.504233649,1.013161089,1.147497361,2.14615108
4706.195250000001,-1.388784469,1.001481861,0.8481748831,1.910782261
4716.18425,-1.3363022,0.9820922014,0.4003892612,1.706024684
4726.1722500000005,-1.219675391,1.254728864,0.09844664633,1.752610716
4736.16025,-0.9241734838,1.648991705,0.03016286194,1.890550203
4746.14825,-0.5168494248,1.84933544,0.02916532695,1.920423264
4756.13625,-0.1920365953,1.906551906,0.0895360744,1.918289586
4766.12525,0.03238188028,1.885153436,0.1627332741,1.892441329
4776.113249999999,0.1948333186,1.809227633,0.2115838373,1.831947699
4786.10125,0.1069467437,1.841468888,0.2808943927,1.865836791
4796.08925,-0.4507688713,1.811060443,0.313446427,1.892453742
4806.07725,-1.291427743,1.398165157,0.1683542025,1.910757588
4816.066250000001,-1.631053324,1.039631727,-0.03923364758,1.934608062
4826.05425,-1.170969254,0.9964734283,-0.2765545893,1.562245412
4836.04225,-0.2429424548,1.014593292,-0.4945651013,1.154562785
4846.03025,0.3919084597,0.9285059783,-0.4642467034,1.109612813
4856.01825,0.8626976126,0.8330189002,-0.2878882474,1.233307464
4866.006249999999,1.070902344,0.8071393429,0.0849430865,1.343696795
4875.99525,1.043285944,0.7642994982,0.6048640537,1.427746409
4885.98325,0.7312481117,0.7525503954,1.004231806,1.452424669
4895.97125,0.3197900712,0.6726382533,1.25178596,1.456597405
4905.959250000001,-0.1450220579,0.5666503067,1.386701691,1.50501347
4915.94725,-0.66451267,0.397713283,1.333786143,1.542315927
4925.936250000001,-1.006822708,0.2469590534,0.9820831382,1.427994408
4935.92425,-1.119286884,0.2060687435,0.4961198759,1.241532274
4945.91225,-1.01403174,0.1693382889,-0.1643950528,1.041134746
4955.90025,-0.7947208071,0.1280413051,-0.959991188,1.252820346
4965.88825,-0.5209775591,0.07427922696,-1.586157818,1.671176724
4975.87725,-0.2596374249,0.01624531925,-1.983435776,2.0004232
4985.86525,-0.146890828,0.0106232214,-2.183685955,2.188646641
4995.85325,-0.183469255,-0.06392176151,-2.299794116,2.307986121
5005.8412499999995,-0.2295540851,0.002980033457,-2.3174147,2.328758221
5015.829250000001,-0.3581840587,0.06121362358,-2.376576244,2.404195826
5025.81825,-0.6451133627,-0.1414996952,-2.218169909,2.314405142
5035.806250000001,-0.7338740963,-0.2717154336,-1.846147245,2.005158377
5045.79425,-0.6183138192,-0.1134602496,-1.419668292,1.552624638
5055.78225,-0.6452560347,-0.01298900485,-1.017856988,1.205220691
5065.77025,-0.7649210572,-0.08707410425,-0.7749893779,1.092380272
5075.75825,-0.62873882,-0.2015967929,-0.5693796408,0.871864064
5085.747249999999,-0.1669315749,-0.1511771294,-0.2993347567,0.3745957445
5095.73525,0.1713748741,-0.131105977,0.1021005714,0.2387103922
5105.72325,-0.02157447159,-0.4632930225,0.2627709478,0.5330613975
5115.71125,-0.1809836036,-0.746950517,0.1945029509,0.7927935025
5125.699250000001,-0.06302421391,-0.8318836632,-0.06333119273,0.8366679871
5135.68825,0.06164310157,-0.8108056203,-0.3909992176,0.9022671522
5145.67625,0.4798456129,-0.7588614415,-0.6483609062,1.10747206
5155.66425,0.9181543601,-0.6115200855,-0.8304116267,1.380777938
5165.65225,1.097427068,-0.3487215096,-0.7158482999,1.355873021
5175.6402499999995,1.048491136,-0.1851143691,-0.3730295545,1.128163127
5185.62925,0.7882382914,-0.1298546728,0.1015614581,0.8052928473
5195.617249999999,0.3960433182,-0.1829805739,0.4217965025,0.6068315168
5205.60525,-0.006427551806,-0.2435309771,0.5553492469,0.6064333733
5215.593250000001,0.0445794645,-0.286361247,0.603563633,0.6695365199
5225.58125,0.3796006554,-0.3769765712,0.6697254628,0.8571698714
5235.570250000001,0.7686735079,-0.5185888253,0.9153710854,1.302957235
5245.55825,1.28125008,-0.5954159765,1.251483074,1.887414061
5255.54625,1.52453752,-0.5613902977,1.6152062,2.290909162
5265.53425,1.271021546,-0.4577150711,1.879575192,2.314692584
5275.52225,0.8401378852,-0.4758931875,1.779172652,2.024292795
5285.510249999999,0.5107329449,-0.567067067,1.586910939,1.760880328
5295.49925,0.5093986103,-0.6359908292,1.489944223,1.698206427
5305.487249999999,0.6591455108,-0.6293102391,1.359059563,1.636321203
5315.47525,0.8079007235,-0.6449265441,1.092834665,1.504300978
5325.463250000001,0.7384480807,-0.7418135919,0.8244620848,1.332415364
5335.45125,0.7338135776,-0.7124088214,0.5154887778,1.145311039
5345.440250000001,0.7385445598,-0.684720355,0.1028437525,1.012357086
5355.42825,0.7219606867,-0.6795712969,-0.2284928155,1.017474003
5365.41625,0.7389328149,-0.4846983634,-0.4588830525,0.9957549218
5375.40425,0.6286525735,-0.2518711531,-0.8289726269,1.070438579
5385.39225,0.3721530569,-0.1287149043,-1.082878026,1.152254418
5395.381249999999,0.1887954837,-0.05009645864,-0.9308223528,0.9510960216
5405.36925,0.1113400492,-0.01356057018,-0.5454054719,0.5568192026
5415.357249999999,0.1440742242,0.06016024768,-0.3493781519,0.3826770577
5425.34525,0.1806675616,0.1219324265,-0.3954711682,0.4515592201
5435.333250000001,0.1933919799,0.1596485755,-0.6723461848,0.71759147
5445.32125,0.1069116604,0.2117534065,-1.080553758,1.106284788
5455.31025,0.3185221025,0.2051451758,-1.106354012,1.169427242
5465.29825,0.5648343077,0.2762382549,-1.655239747,1.770639429
5475.28625,-0.4218786559,0.3422761238,-1.88157494,1.958432741
5485.2742499999995,-0.9993745244,0.538667433,-1.382361887,1.788808662
5495.26225,-1.024107662,0.6496744832,-0.8306893694,1.470006213
5505.251249999999,-0.6334779882,0.6576655805,-0.1726659393,0.9293179779
5515.23925,-0.5997429161,0.4232322863,0.08547109008,0.7390009748
5525.22725,-0.9920191656,0.1631484264,-0.3079535526,1.051453672
5535.21525,-0.9552923656,0.175471141,-0.6380394012,1.16209634
5545.2032500000005,-0.4412775247,-0.316045222,-0.9172047722,1.065774381
5555.19225,0.2436884134,-0.6089904338,-0.9337617481,1.14112418
5565.18025,0.446984261,0.3789580464,-0.2340798301,0.6310289196
5575.16825,0.3845892075,0.6076385576,0.5715565592,0.9185915172
5585.15625,0.6383712307,0.04781619072,0.7192496252,0.9628729094
5595.144249999999,0.5159172325,-0.1750858095,0.4165538889,0.685815408
5605.13325,-0.3442282167,-0.5471321547,-0.04172397673,0.6477557797
5615.121249999999,-0.5384870464,0.4316943768,0.03929562807,0.6912832129
5625.10925,-0.1782769275,1.172279615,0.3479613715,1.235758583
5635.097417,-0.06333820939,-0.02289974302,0.3832522416,0.3891251826
5645.085416999999,0.3574160269,-0.9773650199,0.8263975132,1.328879772
5655.073417,0.7086777131,-1.285766177,1.165215009,1.874338491
5665.062417,0.7355522472,-1.054658194,1.235947607,1.783509883
5675.050416,0.721545973,-0.8253303963,0.8778746456,1.404443928
5685.038417000001,0.7183275193,-0.3203478956,0.36884938,0.8687157558
5695.026417,0.7600270839,0.3557077628,-0.2727305102,0.8823554341
5705.014416,0.221161138,0.5920908111,-0.6842458534,0.9314913663
5715.003417,0.1811024483,0.6989391755,-0.377568748,0.8147835462
5724.991417,0.4106030314,0.4142880929,0.8833499783,1.058554041
5734.979417,0.4423211065,0.06808804885,1.588389115,1.650231476
5744.967417,0.534833706,-0.09278391033,1.404015296,1.505295618
5754.955417,0.2498798838,0.0371192944,1.008955772,1.040100739
5764.944415999999,-0.2287543322,0.2657916194,0.1976405668,0.4025363625
5774.932417,-0.6436645688,0.7871287823,-0.7249477369,1.248769402
5784.920417,-0.5183596145,0.7755444248,-1.012100405,1.376413119
5794.908416,-0.4868516006,-0.4069352192,-0.7221890205,0.9613416328
5804.896417,-0.1385866123,-1.102717702,-0.3266085094,1.158389269
5814.884417,0.09177044168,-0.9707734537,0.5244730246,1.107201366
5824.873417,0.488934525,-1.308972022,0.6385393381,1.536293334
5834.861417,0.3671427239,-0.4977603853,0.6835184598,0.9218224698
5844.849416999999,1.370185499,-1.149491407,1.220984582,2.165535072
5854.837417,2.319179098,-0.6698027922,0.8862566292,2.571512839
5864.825417,1.704905412,-0.3182600011,0.1186633945,1.738411026
5874.814417,0.1481889099,-0.6803539467,-0.8896766657,1.129763699
5884.802416,0.05099473715,-0.7395219219,-2.595767893,2.699537755
5894.790417,0.0370201841,-0.3804318371,-2.145121813,2.178909468
5904.778417,0.2069569355,-0.4488009909,-1.825446932,1.891166308
5914.766417,0.5330894816,-0.260117993,-1.631169099,1.735672318
5924.755417,0.6959016931,-0.4507136151,-1.248062453,1.498359709
5934.743416,0.7810845155,-0.2165213723,-1.747138097,1.925997418
5944.731417,0.3024618477,-0.09186502039,-1.730653626,1.759285175
5954.719416999999,0.2648449552,-0.08949660569,-1.204310662,1.236331939
5964.707416,0.1102656233,0.1091166455,-0.7020377612,0.7189728564
5974.696416999999,0.589220413,0.3312532452,-0.3280603731,0.7513541215
5984.684417,0.8398642355,0.7512651774,-0.3612959468,1.183345284
5994.672417000001,0.9974695015,0.2867018473,0.2721440345,1.072942557
6004.660417,0.7149536759,0.6623155788,0.08173062623,0.9780084763
6014.648417,0.009874777794,0.8206912154,-0.569715271,0.999103134
6024.636417,-0.01472095013,0.751541166,-0.9830280483,1.237487363
6034.625417,0.3955606306,0.9519576985,-0.7771317977,1.290978506
6044.613417,0.7602146333,0.9951651138,-0.01198269904,1.25236715
6054.6014159999995,1.03866372,1.152450829,0.7404048514,1.719059214
6064.589416999999,0.7809348267,0.9844992077,1.365080441,1.855408986
6074.577417,0.433794989,0.9905925912,1.84189018,2.135886516
6084.566417,0.456471076,1.001647922,2.288539688,2.539503555
6094.554417,0.8092201477,1.219566633,2.476315125,2.876511188
6104.542417000001,0.9375893354,1.408704763,2.819869157,3.288644848
6114.530417,1.456806298,1.093288409,3.686941072,4.112310616
6124.518417,0.9890658832,1.174952962,4.090163017,4.369004382
6134.507417,0.3163992709,0.6567832357,4.524030511,4.58239291
6144.495416,-0.3094580412,1.185445206,4.972376297,5.121090767
6154.4834169999995,-0.4860714358,0.9579838389,5.028467467,5.141933833
6164.471417,-0.6314642072,1.127948365,4.925906135,5.092697302
6174.459416999999,-0.4000483686,0.9823491865,4.534723315,4.657119728
6184.447417,-0.4404923898,0.8127027494,3.661409497,3.776299619
6194.4364160000005,-0.4044928372,1.125634621,2.62081678,2.880858961
6204.424417,-0.1989345556,0.6179284877,1.774223569,1.88925378
6214.4124170000005,-0.1622128719,0.6183997732,0.7978987688,1.022435201
6224.4004159999995,-0.4236108935,0.5326298904,0.03156796614,0.6812762478
6234.388417,-0.1988275516,0.5830942851,-0.1667555737,0.6382309629
6244.377417,0.371157276,0.6071140623,-0.2087782701,0.7415750631
6254.365417,1.211767616,0.6097581732,-0.02645039164,1.356792323
6264.353416999999,1.484839019,1.02653718,0.1080754025,1.808371031
6274.341417,1.781333783,0.05991174102,0.3395607499,1.814398238
6284.329417,1.081611519,0.3590126091,-0.1422496737,1.148480954
6294.318417,0.4332856965,-0.3486852568,-0.7591136026,0.9410480141
6304.306417000001,-0.03862261355,-0.00652256906,-1.072354646,1.073069773
6314.294416,-0.06177700281,-0.1239703274,-0.8502167308,0.8614252896
6324.282417,0.1067169482,-0.02682644069,-0.2597074454,0.2820569484
6334.270417,0.3845181638,-0.4232723397,0.5306982628,0.7801630201
6344.258416,0.4535176474,-0.5565695608,1.093387519,1.308030657
6354.247417,0.1321757251,0.242295168,0.8157732685,0.8611988135
6364.235417,0.2340669662,-0.04858217597,0.9222041416,0.9526846547
6374.223416999999,0.3063052225,0.01194586158,0.8806175745,0.9324445857
6384.211417,-0.1854274875,-0.06427844167,0.3603055747,0.4102867026
6394.199417000001,-0.4888330758,-0.1866302598,0.02696735859,0.5239426192
6404.188416,-1.100638359,-0.2230332702,-0.08280812189,1.126057646
6414.176417000001,-1.720764815,-0.1507154918,0.07797174364,1.72911142
6424.164417,-1.621058094,-0.08649903059,0.3715999103,1.665352191
6434.152417,-1.364960573,0.05033224761,0.3049932535,1.399525486
6444.140417,-1.067572355,0.06334756494,0.1460390349,1.079375304
6454.128417,-0.572672208,0.0713670212,0.09741841346,0.5852666544
6464.1174169999995,-0.2579826629,0.1642009252,0.06125777006,0.3118806063
6474.105417,-0.02172357559,0.1414529175,-0.1319808666,0.1946786859
6484.093416000001,0.1527976853,0.1906122136,-0.2385089497,0.3414186107
6494.081417,0.2684854317,0.1473983663,-0.05782194614,0.311695497
6504.069417000001,0.3412335652,0.09479447544,0.08902648956,0.3651740057
6514.058417,0.483301025,0.02747314274,0.0938837716,0.4931012238
6524.0464170000005,0.382776863,0.01725220978,-0.1218036416,0.4020595636
6534.034417,0.4206545413,0.05966264963,-0.2086415184,0.4733298617
6544.022417,0.2783181095,0.07025897384,-0.1427387202,0.3205801549
6554.0104169999995,0.04644443393,0.10533759,-0.138359448,0.1799900835
6563.999417,-0.008846837282,0.09210066319,-0.1101019013,0.1438166449
6573.987416,-0.02705214322,0.1251099497,0.002020359188,0.1280171856
6583.975417000001,0.04336061239,-0.07703472733,0.07691076636,0.1171740496
6593.963417,0.1716327363,-0.3602843785,-0.05291496277,0.4025700223
6603.951416,0.004899966717,-0.1628051949,-0.2561450292,0.303545412
6613.940417,0.03055345595,-0.3488595039,-0.2387884466,0.4238589262
6623.928417,-0.2010021311,-0.2050068891,-0.1712390725,0.3342940341
6633.915875,-0.1104416245,0.06568703592,0.0006443631649,0.1285011841
6643.903875,0.1540647769,0.1534847331,-0.2014143598,0.2964140063
6653.891875,0.1882622176,0.205502733,-0.5120406747,0.5829748609
6663.8798750000005,-0.107727347,0.4333663881,-0.1077770483,0.4593772957
6673.868875,-0.2339535302,0.1856227845,0.2917491639,0.4175016731
6683.856875,-0.2158967435,0.2801728463,0.4646960619,0.583995426
6693.844875,0.1203924161,0.362047314,-0.09807622522,0.3939435714
6703.832875,0.2496696764,0.2309965932,-0.3991066745,0.5243858418
6713.820874999999,0.3224224877,0.1506190127,-0.004584217072,0.3558979666
6723.809875,0.2817445779,0.2173544544,0.4310415351,0.5589452308
6733.797874999999,0.2357854629,0.2562817079,0.6794074287,0.7634589396
6743.7858750000005,-0.08886422932,0.3670162779,0.5081473061,0.6330967416
6753.773875,-0.4597431779,0.3328445649,0.4600273526,0.7305986991
6763.761875,-0.2531236267,0.2630112684,0.5887619913,0.6927388975
6773.749875,0.06430358469,0.262052325,0.3355607428,0.4305895774
6783.738875,0.4930413169,0.233489846,0.2545281279,0.6019898805
6793.726875,0.8197065443,0.2126152861,0.5381730509,1.003371472
6803.714875,0.5952196562,0.2014418417,0.6280794002,0.8884531432
6813.702875,0.3417650771,0.2262667805,0.3661842191,0.5496279707
6823.690874999999,0.3100579655,0.3093001664,0.2753699434,0.5173307845
6833.679875,0.08507991135,0.4482107145,0.2484670503,0.5194875465
6843.667875,0.2018166482,0.5482542354,0.3195371792,0.6658953934
6853.655875,0.3293800896,0.5265084404,0.4261746052,0.7532112422
6863.643875,0.3331059355,0.5327801639,0.0132763955,0.6284827205
6873.631875,0.2870807469,0.585297516,-0.5091297846,0.8271648415
6883.6208750000005,0.1605633724,0.5555802119,-0.5130382097,0.7730835485
6893.608875,0.1655551404,0.6382352829,-0.1196904579,0.6701332603
6903.596875,0.3824736848,0.7441090626,0.4268588756,0.939251253
6913.584875,0.4491003683,0.5476660055,0.5834894107,0.9176541216
6923.572875,0.4950387257,0.522993679,0.3226899979,0.789122654
6933.560875,0.4136592248,0.3424182111,-0.006218952388,0.5370315269
6943.549875000001,-0.0349201566,0.1382696933,-0.5000448194,0.5199834102
6953.537875,-0.5175452435,0.004403538108,-0.9579987493,1.088868254
6963.525875,-0.5645515949,-0.09714681029,-1.005855871,1.157541377
6973.513875,-0.3563801926,-0.1617994738,-0.6330406165,0.7442622747
6983.501875,-0.02722346663,-0.1175600249,-0.1306949177,0.177883777
6993.490875,0.2800699353,-0.117792744,0.3267068888,0.4461520934
7003.478875,-0.08698785782,-0.08000862122,0.4370641673,0.4527619167
7013.466875,-0.6914253572,-0.08858239353,0.3314109738,0.7718478468
7023.454874999999,-0.9288758147,-0.2386389041,0.1472249964,0.9702752214
7033.442875000001,-0.767574816,-0.1494425529,-0.1717629831,0.8006289385
7043.430875,0.009199424386,-0.1381094795,-0.356707052,0.3826209334
7053.4198750000005,0.2509420305,-0.1221155906,-0.3373407814,0.4378160835
7063.407875,0.1214434531,-0.06713480651,-0.2547023749,0.2900498136
7073.395875,0.1115581504,0.03882375777,-0.08286776349,0.1442898863
7083.383875,0.1318266463,0.209436155,-0.0719999823,0.2577319637
7093.371875,0.348815065,0.6009078276,-0.2016178429,0.723472129
7103.360875,0.6181810874,0.7696134478,-0.2937278616,1.029916877
7113.348875,1.050537661,0.8618117595,-0.2761793442,1.386587147
7123.336875,1.479846374,0.9253242159,-0.08874333814,1.747582781
7133.324874999999,1.554446613,0.8215560186,0.305417469,1.784527499
7143.3128750000005,1.306922865,0.5968159461,0.7460390823,1.618891893
7153.301875,0.9013336748,0.3997507453,1.030122693,1.425957858
7163.289875,0.3236141503,0.003194333911,0.8960963237,0.9527460015
7173.277875,0.07435436368,-0.1795247233,0.2183956973,0.2923258084
7183.265875,-0.07342319459,-0.3018812191,-0.3980889666,0.5049733273
7193.253875,-0.3572265771,-0.3817389822,-0.6303694622,0.8189634527
7203.241875,-0.5023220176,-0.4284886408,-0.4815576777,0.8172072696
7213.230875,-1.016625272,-0.6621772921,-0.3196405287,1.254661619
7223.218875,-1.894946938,-0.7545615453,-0.3788456337,2.074538753
7233.206875,-3.235498309,-1.098643289,-0.5047901273,3.454023662
7243.194875,-3.704725963,-1.14116775,-0.4511897247,3.902669658
7253.182875,-2.575399702,-0.8965056288,0.02225713402,2.72706827
7263.171875,-1.427219387,-0.9334916067,0.7136820526,1.848703283
7273.159875,-0.8380211931,-0.6916881895,0.9213001621,1.424607335
7283.147875,0.0168689248,-0.3981883693,0.7881437127,0.8831812102
7293.135875,0.6896706077,-0.04063288629,0.537899255,0.8755753464
7303.123875,1.039136468,0.2643572974,0.3122379537,1.116772994
7313.111875,0.3667446747,0.4362397099,0.2569313335,0.6251563413
7323.100875,-0.111899043,0.6497238922,0.1946630184,0.687427249
7333.0888749999995,-0.1431146961,0.7070815694,0.3436478806,0.7990869964
7343.076875000001,-0.2547924221,0.9129871756,0.2783452991,0.9878971944
7353.064875,-0.2860206467,0.8420399845,0.1090610969,0.8959539434
7363.052875,-0.118910147,0.7584031659,0.1383848834,0.780041897
7373.041875,-0.4178814992,0.7542972511,0.2476038551,0.8971604982
7383.029875,-1.087076035,0.6112193924,0.4060787483,1.311572873
7393.017875,-1.354092354,0.4675398552,0.4087308991,1.489704859
7403.005875,-0.8708626646,0.4774327594,0.4070749676,1.073337715
7412.993875,-0.1550884782,0.2483037668,0.2415017009,0.379513199
7422.982875,-0.03425795943,0.1631127584,-0.1277781804,0.2100158164
7432.970875,0.1256360529,0.005027436018,-0.5412872779,0.5556992084
7442.958875,0.05875092253,-0.02674633384,-0.6287030789,0.6320083849
7452.946875000001,0.3730503121,-0.05098304272,-0.5798952004,0.6914074409
7462.934875,0.9795270279,0.0001602137089,-0.5409714552,1.118983172
7472.922875,1.335713824,0.06231202304,-0.907070305,1.615794153
7482.911875,1.768893686,-0.1383924848,-0.9545895302,2.014789945
7492.899875,2.065648212,-0.1983708841,-0.8445882741,2.240442567
7502.887874999999,1.310021012,-0.3092452025,-0.6602570665,1.499242156
7512.875875,0.3954881251,-0.5842438477,-0.02000917196,0.7057989074
7522.863875,-0.04682128698,-0.641492182,0.9430284154,1.14149334
7532.852875,-0.05477276936,-0.7232625693,1.203611993,1.40527244
7542.840875,0.4066843736,-0.4330839676,0.7336127257,0.9440029312
7552.828875,1.001084689,-0.4442655981,0.02501680054,1.095521938
7562.816875,1.205464172,-0.3694387794,-0.2875355872,1.293176552
7572.804875,0.8148438536,-0.2960106146,-0.1924832495,0.8880555112
7582.792875,0.3235792863,-0.4519196033,0.003315298185,0.5558289967
7592.781875,0.09938410118,-0.2402819717,0.2519308678,0.3620521891
7602.769875,0.01222857445,-0.1369710267,0.4606634565,0.4807508922
7612.757874999999,0.1953540131,-0.09964766443,0.5802939805,0.620349862
7622.745875,0.4914734591,-0.3694440418,0.03837059855,0.61604169
7632.734042,0.4729867559,-0.3700983453,-0.5438963787,0.8102546064
7642.723042,0.2537280826,-0.322442953,-0.586940072,0.7161327013
7652.711042,0.1327172504,-0.2995095885,-0.26605299,0.4220237619
7662.699042,-0.04496121459,-0.3015490973,0.1989317051,0.3640428439
7672.687042,-0.1664675253,-0.1072724336,0.3233287331,0.379157331
7682.675042,-0.2859053104,-0.08020157933,0.3613075682,0.4676722128
7692.664041999999,-0.4225154907,-0.02379875243,0.3815260705,0.5697787842
7702.652042000001,-0.4744666862,0.1933095342,0.4079369203,0.6549043772
7712.640041000001,-0.4506960004,0.2805692875,0.391674571,0.659738569
7722.628042,-0.299141287,0.1879143083,-0.1757567775,0.3945728598
7732.616042,-0.281163657,0.2557092655,-0.7256605124,0.8191601857
7742.604041,-0.2617784926,0.3199765974,-0.7422946715,0.8496554487
7752.593042,-0.3549817214,0.5750362372,-0.2436195624,0.718351716
7762.581042,-0.7769989197,0.7969661379,0.5858921047,1.257836199
7772.569042,-0.9990580438,1.203528889,1.305078653,2.037112921
7782.5570419999995,-0.8107570153,1.106228297,1.07057373,1.739883932
7792.545042000001,-0.6493480624,1.169030317,0.1855918308,1.350084855
7802.534041000001,-0.1488536469,0.971806072,-0.4153031695,1.067258719
7812.5220420000005,0.5672076926,0.6037583452,-1.029790717,1.321634453
7822.510042,0.0122201668,0.4701354343,-0.7738099945,0.9055156357
7832.498041,0.6405412786,0.01212127805,0.01780009389,0.6409031895
7842.4860419999995,1.250978606,-0.2328606856,0.2779637682,1.302472813
7852.474042,1.573677959,-0.4172409368,0.113500303,1.632003259
7862.463042,1.683144414,-1.074088492,-1.51773487,2.508019207
7872.451042,0.7487530674,-1.029153224,-0.7818195105,1.493663035
7882.439042,0.1267202089,-0.9689549696,0.7925351179,1.258190628
7892.427041999999,0.30963174,-0.6223226702,0.6398771811,0.9447751728
7902.4150420000005,0.2309104747,-0.1949145949,0.7952318537,0.8507085563
7912.404042,0.2734166627,-0.2623844469,0.3346290986,0.5055481214
7922.392042,-0.2068003763,0.05173324049,0.4152236474,0.4667476847
7932.380042,-0.4140052338,0.1503781074,0.2954224578,0.5303662295
7942.368042,-0.8216627303,-0.06513388932,0.2799003843,0.8704690064
7952.356042,-0.2122940912,-0.2212726736,-1.355508549,1.389760341
7962.344042,0.01519928891,0.413991639,-0.8663515377,0.9603046821
7972.333041,0.1059106537,0.2261878431,-0.2186601377,0.3319491869
7982.321042,-0.1637543076,1.024663147,0.07313112617,1.040239492
7992.309042,0.0555530072,0.912771998,-0.02346019864,0.9147618477
8002.297041000001,0.4120589515,0.03256372869,-0.1944994791,0.4568183702
8012.285042,-0.3187584397,1.248202202,0.2381314023,1.310084823
8022.274041999999,-0.2504193991,0.5256009525,0.01432452718,0.5823842622
8032.262041999999,0.6472182141,-0.03457926393,-0.02989213586,0.6488302413
8042.250041999999,0.2012902161,0.01974078476,0.4075521004,0.4549793009
8052.238042000001,0.1543953273,0.3298542988,0.04569599946,0.3670557177
8062.226042000001,-0.01624985084,0.3028208667,0.0856009074,0.3151064111
8072.215042,0.6220118907,-0.1132371783,0.2382833934,0.6756481527
8082.203042,0.6653245559,0.2868567985,0.4085285854,0.8317687135
8092.191040999999,-0.1661205661,0.2901797712,0.3434619391,0.4793395933
8102.179042,-0.2984925384,-0.03285258114,-0.003957395554,0.3003210758
8112.167041999999,-0.3113520274,0.03431847811,0.04117259343,0.3159319949
8122.155040999999,0.1576904891,-0.1709006649,0.2588024426,0.3479253252
8132.144042,0.8084357437,-0.6180156112,0.07621261338,1.020450886
8142.132042,0.6732309417,-0.4392247134,-0.1746528232,0.8225945893
8152.120042,0.3760749306,-0.6906052852,-0.2136525822,0.8148714249
8162.108042,0.1698201726,-0.3880136293,-0.01086646671,0.423688031
8172.096041,0.04407594614,-0.0519858402,0.1043412244,0.1246286794
8182.085042000001,-0.06903434761,-0.1075367278,-0.01292585035,0.1284405177
8192.073042,0.03950824745,-0.007231251597,-0.003215959473,0.0402931137
8202.061042000001,0.1514705866,0.050190745,0.08143767159,0.1791495014
8212.049042,0.4255911262,-0.6501981014,-0.01093252083,0.7771775201
8222.037042,0.4280042721,-1.116962031,-0.02178904613,1.196355548
8232.026041,0.5934894651,-0.9363988423,-0.04790210824,1.109669838
8242.014041999999,0.7426208,-0.3945063776,-0.02527517438,0.8412845945
8252.002042,0.2321701294,-0.2447264403,0.04157485446,0.3398859634
8261.990041000001,-0.2528288539,-0.167414555,0.1080220284,0.3218987748
8271.978042,-0.7475880097,0.4004535806,0.07194883743,0.8511330905
8281.966042,-0.68502748,0.6225594825,0.1117361615,0.9323775669
8291.955042,-0.3897679402,0.06339843571,0.008770238757,0.3949877542
8301.943041999999,-0.07470190756,-0.3211992502,-0.05828621507,0.3348829888
8311.931042,0.245408518,-0.6359683174,0.0747812287,0.6857647363
8321.919042,0.5063530149,-0.8867349315,0.2031305176,1.041131222
8331.907041999999,0.2207904976,-1.066311695,0.1344935614,1.097204444
8341.896042,-0.4387871955,0.2958299357,-0.1590097672,0.5525700497
8351.884041,0.307862336,1.230036072,-0.1570778471,1.277670304
8361.872041999999,0.7132569601,-0.9655121291,-0.2532616575,1.226821352
8371.860042,-0.01789562277,-1.319379773,-0.3289152725,1.359878118
8381.848041,-0.221340282,-0.9810551977,-0.2280694405,1.031249965
8391.836041999999,-0.2542530164,-0.7244659263,-0.0763178587,0.7715697572
8401.825042,-0.4463025487,-0.379408282,0.1088769462,0.5958110429
8411.813042,-0.1576826685,-0.1115309608,0.3163244631,0.3706266924
8421.801042000001,0.01434855558,-0.07068815947,0.1067690249,0.1288499966
8431.789041,-0.1409235983,0.09162294567,0.07582786202,0.1844019777
8441.777042,-0.221653839,0.03080722511,0.01861991007,0.224557811
8451.766042,-0.02020308025,0.03370335102,-0.02399814248,0.04604336178
8461.754042,0.006585207358,0.02722931385,-0.03532825571,0.04508753863
8471.742042,-0.02366083123,-0.02081491828,-0.03379920881,0.04621127864
8481.730042000001,0.06108849317,0.04717592061,-0.03485295016,0.08468824958
8491.718042,0.1619306707,0.1296859807,0.008639809303,0.2076406559
8501.706042,0.1595846216,0.08780237496,0.06906259697,0.1947977176
8511.695042,0.1453872896,0.04971419692,0.06020461343,0.1650259399
8521.683040999998,0.09149525709,0.039507882,0.03225974657,0.1047518308
8531.671042,0.04022796661,0.0168785727,0.02792103946,0.05179536619
8541.659042,0.0297404737,0.04414355457,0.005740796328,0.05353602459
8551.647041,-0.006465777978,0.07543200552,-0.03152296085,0.08200908976
8561.636042,-0.01196866572,0.06727572441,-0.04199470282,0.08020490707
8571.624042,0.04953059435,0.1866729444,-0.002365235277,0.1931467377
8581.612041999999,0.1092226262,0.2171211505,-0.03659947693,0.2457858779
8591.600042,0.544566031,3.237136699,0.3100270484,3.297229586
8601.588042,0.7636287495,4.59374394,-0.3377924788,4.6690166
8611.577041,0.3646080291,2.9991176,-0.5896378311,3.078200475
8621.565042,0.08646266822,1.23499685,0.07859703027,1.240512195
8631.553042,-0.2259127681,0.3952723628,0.278167763,0.5335298717
8641.54075,-0.3264385747,0.4988850242,0.2448713051,0.6445233638
8651.528750000001,0.1559676801,0.6975225413,0.1183897448,0.7244858484
8661.51675,0.06520098612,0.1694026083,0.2291412717,0.2923253918
8671.50575,-0.04999658089,-0.1598044038,0.1726266899,0.2404934087
8681.49375,0.1470684737,-0.4607225865,0.1157351089,0.4972816638
8691.481749999999,0.1401115114,-0.2270625865,0.2647688683,0.375887227
8701.46975,0.2401193826,0.3919341874,0.2655378503,0.5308296102
8711.45775,0.3280659645,0.9881683356,0.08438168071,1.044616774
8721.446750000001,0.4701776439,1.037935742,0.2386458477,1.16418618
8731.43475,0.4995393642,0.9070089823,-0.01767094351,1.035624031
8741.42275,0.3400229723,1.44615384,0.02924134076,1.485877387
8751.41075,-0.01104298296,1.570290813,0.01881049275,1.570442301
8761.39875,-0.1281824971,-0.3369668519,0.2887407714,0.4618967904
8771.38675,-1.423083213,-4.464253841,0.127146608,4.687312071
8781.375750000001,-1.281595943,-5.920334499,-0.2499363095,6.062616342
8791.36375,0.04467596183,-5.476223853,-0.36661282,5.488663643
8801.35175,0.677372086,-3.386779811,-0.2755277451,3.464826976
8811.339750000001,0.3919897725,-0.370113548,0.02164690398,0.5395448162
8821.32775,0.1136091343,-0.104092133,0.1379580367,0.2068202781
8831.31675,0.08492050163,0.0734439522,0.2189068902,0.2460197802
8841.304750000001,0.05589140567,0.2315672815,0.1474346191,0.280150356
8851.29275,0.05515544222,0.2298604792,0.1091604996,0.2603727662
8861.28075,0.1129920612,0.1109023851,0.1306888513,0.2052952039
8871.268750000001,0.1364783987,0.05031236708,0.09730870508,0.1750047762
8881.25675,0.02608928267,0.106669001,0.06097834624,0.1256076636
8891.24575,0.02173998663,0.1939632529,5.620636046e-05,0.1951778001
8901.23375,0.01387285718,0.3493880922,0.0573190856,0.3543303158
8911.221749999999,0.07425688877,0.501510424,0.06208865941,0.5107658882
8921.20975,0.2536223759,0.8161438358,0.05710339643,0.8565488125
8931.197750000001,0.1698628572,0.8924692959,0.03197264828,0.9090528503
8941.18675,0.09958106099,0.2555999225,0.006911408901,0.2744002108
8951.17475,0.1794752778,-0.7867837965,-0.003312447667,0.807001295
8961.16275,0.0774401952,-1.054438924,-0.0005841368437,1.057278946
8971.150749999999,0.05978976262,-0.398579548,0.02043433763,0.4035567295
8981.13875,0.002553123903,0.2833478844,0.0445861157,0.2868457142
8991.12675,-0.04277871394,0.3563252288,0.06504493855,0.3647307652
9001.11575,0.1028742494,0.5898454803,-0.0004221689701,0.5987495136
9011.10375,0.1594010373,0.8349262619,-0.08583537161,0.8543291313
9021.09175,0.3031556198,0.1138914818,0.06819717251,0.3309463004
9031.07975,0.2998889997,-0.2606367141,0.03975872755,0.3993064804
9041.06775,0.1224678396,-0.4358532089,-0.09289654233,0.4621646449
9051.056750000002,-0.09878107052,-0.3927995753,0.03708655,0.4067242536
9061.044750000001,-0.2162768491,0.00102735579,-0.02840168059,0.2181361648
9071.03275,-0.1734415908,0.4349644321,-0.0213902843,0.4687574926
9081.02075,-0.1105871471,0.3689663243,0.1047990614,0.3991848054
9091.00875,-0.09951923582,-0.03564228773,0.1533775829,0.1862770354
9100.99675,-0.01656121507,-0.7555415386,0.02766025364,0.7562290526
9110.98575,0.1747875467,-0.7313896143,0.00823711887,0.7520301221
9120.97375,0.1895110367,0.004248002172,0.1087587228,0.2185427609
9130.96175,0.09662949616,0.5454826552,-0.01686556265,0.5542319314
9140.949750000002,-0.04792820144,1.010989434,-0.02606571794,1.012460453
9150.937750000001,-0.04129680108,1.100812021,0.1148650432,1.107558807
9160.92675,-0.09063542403,0.1850848407,0.1816310365,0.2747016778
9170.91475,-0.005745035559,0.02694455445,0.1757784122,0.1779243228
9180.90275,0.1280754382,0.181073066,0.0702450867,0.2326481148
9190.890749999999,0.09599454336,-0.10062298,0.006140161157,0.1392035849
9200.87875,-0.0509377268,-0.1014199555,-0.08530502915,0.141977489
9210.86775,0.07393647049,-0.1867501277,-0.09836186171,0.2236454062
9220.85575,0.03978595365,-0.6350163907,-0.1359395778,0.6506214778
9230.84375,0.1074781825,-0.2717598724,0.0309750402,0.293878276
9240.83175,0.1805061053,-0.4103850764,0.2068388218,0.4937414943
9250.81975,0.138994346,-0.8045201558,0.166307677,0.8332048684
9260.80775,0.2467567032,-0.2672078151,0.1528461441,0.3945260838
9270.796750000001,0.2419760562,0.04166667402,0.1761877173,0.3022095883
9280.78475,0.1162120224,0.2748624051,0.1418113518,0.3304013247
9290.77275,0.1755542811,0.3014976418,0.1310829536,0.3726967593
9300.76075,0.06942026384,0.217716397,0.1043447328,0.2512119142
9310.74875,-0.03125406202,0.4307930285,0.08777664721,0.4407541146
9320.73675,-0.09406697217,0.8603312445,0.1092102009,0.8723217947
9330.72575,0.0004321092367,0.4835372525,0.01948343419,0.4839298147
9340.71375,-0.1417230588,-0.002312573791,0.01733056247,0.1427974853
9350.70175,-0.1486835112,0.2075165141,0.02993482053,0.2570330399
9360.689750000001,0.006322338469,-0.3835995662,0.01059055008,0.3837978099
9370.67775,0.03781723268,-0.2268392229,-0.003628197312,0.2299985651
9380.66675,0.0226125351,-0.4419062465,0.04639349006,0.4449098936
9390.65475,0.0848887074,-0.3522631681,-0.05969890237,0.3672320672
9400.642749999999,0.1789847329,-0.2606215113,-0.06314123131,0.3224064545
9410.630749999998,0.1394768144,-0.1464090174,-0.05455576457,0.2094414324
9420.61875,0.0533717034,0.1838037157,0.03231281005,0.1941042563
9430.60675,0.01364104249,0.9773363686,0.1434186783,0.9878974505
9440.59575,0.01094178502,1.018806576,0.1114905419,1.024947171
9450.58375,0.0901775505,-0.1180827659,0.05970124125,0.1601242281
9460.57175,0.1417010587,0.2942424166,-0.188841092,0.377251571
9470.55975,0.4049745016,0.8729928052,-0.3025635892,1.008794087
9480.54775,0.5645877014,-1.177565498,-0.3059460573,1.341276543
9490.536750000001,0.2443779463,-1.127180625,-0.2461882442,1.179349564
9500.52475,0.3238954744,-0.7226690769,-0.0498918061,0.7935036644
9510.51275,0.1393094744,-0.9672926062,0.131430936,0.9860710962
9520.50075,0.02241493575,-0.8419312263,0.2964227702,0.8928701349
9530.48875,-0.07242185891,-0.4921525401,0.3219512022,0.5925467281
9540.47675,-0.103088897,-0.4135840881,0.2187104237,0.4790755348
9550.465750000001,-0.2164259896,-0.2951931739,0.130336118,0.3885443637
9560.45375,-0.3670363046,-0.1627987629,0.07803226233,0.4090331528
9570.44175,-0.3554060465,0.05492640495,0.03797708094,0.3616249805
9580.429750000001,-0.3894151338,0.1591278809,0.02049675666,0.4211721097
9590.41775,-0.3916530825,0.1074344015,0.03606387198,0.4077191319
9600.40675,-0.2132376491,-0.06046605706,0.01892677926,0.2224514824
9610.39475,-0.1066302632,-0.233237831,0.01197509766,0.25673586
9620.382749999999,-0.01814646833,-0.07411287367,0.07579219401,0.1075475199
9630.37075,0.1827619977,0.20521505,0.06871698998,0.2832616975
9640.358750000001,0.2666039804,0.4279284775,-0.02638322175,0.5048727945
9650.34675,0.251674175,0.522531749,-0.08374740399,0.5859973949
9660.33575,0.2032766249,0.2691946989,-0.1523345858,0.3701256519
9670.32375,0.1104772925,0.1917921817,-0.1527712266,0.268939623
9680.311749999999,0.235554242,0.06392585456,-0.2005805469,0.3159190903
9690.29975,0.318907434,0.016121943,-0.1153176177,0.3394996634
9700.28775,0.5489940178,0.03842848599,-0.03610187888,0.5515201953
9710.27675,0.6484396975,0.1558195263,0.03573701262,0.6678554485
9720.26475,0.6560733837,0.1703890336,-0.04767044887,0.679512457
9730.25275,0.4272436955,0.1242299438,-0.1511190227,0.4699012804
9740.240749999999,0.1920142297,0.03993238986,-0.196075121,0.2773256448
9750.22875,0.2649767368,0.1455863142,-0.1705124098,0.3471059317
9760.21675,0.1025545346,0.1860969937,-0.03521843769,0.2153830587
9770.205750000001,-0.2319569253,0.2014798486,0.1286884457,0.3331048794
9780.19375,-0.4330362397,0.2047683227,0.1603910257,0.5051492175
9790.18175,-0.6120681889,0.1546617776,0.1211796706,0.6428314288
9800.169750000001,-0.8792572197,0.2109739727,0.05509480476,0.9058911155
9810.15775,-0.7914454161,0.09220532835,0.1094838506,0.8042850134
9820.14675,-0.699331816,0.6145897275,0.1042394098,0.9368304951
9830.13475,-0.6876655975,0.9814750278,0.0373251164,1.198987226
9840.12275,-0.4238569882,0.885725702,-0.04882892847,0.9831322546
9850.11075,0.1851265021,0.329639706,-0.2268496748,0.440902407
9860.098750000001,0.608492653,-0.1056194258,-0.2634006929,0.6714154429
9870.08675,0.6881148098,-0.3133902937,-0.2764021231,0.80505503
9880.07575,0.4937716341,-0.5708572322,-0.1863963711,0.7774522579
9890.06375,-0.06516217522,-0.2918316096,-0.05372597158,0.3038063157
9900.051749999999,-0.1481305474,-0.437167663,-0.04601977989,0.4638707199
9910.03975,-0.005298966095,-0.5584646434,0.02212060153,0.5589276858
9920.02775,0.0975556403,-0.2693321085,0.1465382409,0.3217613148
9930.01675,0.1872174298,0.07522209048,0.1452674948,0.2486189332
9940.00475,0.2776006196,0.5071477246,0.08266574219,0.5840329987
9949.99275,0.3444713878,0.8292363364,-0.00889829278,0.8979825266
9959.980749999999,0.3526698054,0.6070532513,-0.1259863012,0.7132756757
9969.96875,0.1227230432,-0.527725246,-0.05004047155,0.5441129748
9979.95675,0.2165896751,-0.5044422179,-0.1546840701,0.5703509447
9989.94575,0.1332113766,-0.2596497041,-0.1741827802,0.3398571474
9999.93375,0.08882497989,-0.5444178772,-0.05930480003,0.5547952427
10009.92175,0.02727532413,-0.5731826699,0.1630051696,0.596534158
10019.90975,0.01645209141,-0.8158555681,0.2188975346,0.8448710611
10029.89775,-0.04724937625,-0.901457051,0.2792109793,0.9448894588
10039.886750000001,0.04032722309,-0.641907919,0.288743695,0.7050141721
10049.87475,0.01875779472,-0.495609414,0.3093410969,0.5845275531
10059.86275,-0.01354120128,-0.393999424,0.272040685,0.4789833447
10069.850750000001,0.009121619873,-0.5408686173,0.2377331704,0.5908799586
10079.83875,0.1444091235,-0.9016640425,0.1452033216,0.9246275169
10089.82675,0.2456530047,-1.25854885,0.04952299297,1.283254898
10099.81575,0.3691072057,-0.9228216076,0.01407132447,0.994000931
10109.80375,0.1351430409,-0.8146539652,-0.07044213787,0.8287863533
10119.791749999999,-0.00835282065,-0.5264569849,-0.02022201061,0.5269114311
10129.779750000002,-0.09567404285,-0.5000796103,0.03863372326,0.5106130666
10139.76775,-0.1716680389,-0.5421240145,0.08123595178,0.5744281004
10149.75675,-0.3124593439,-0.4520435643,0.1154842633,0.5615254586
10159.74475,-0.3413450278,-0.080198071,0.1274776335,0.3730934275
10169.73275,-0.2725619642,0.2091227442,0.06754001856,0.3501199803
10179.72075,-0.2372383498,0.2628668422,-0.0563379959,0.3585456471
10189.70875,-0.0658123856,0.4530393451,-0.1038295931,0.4694214554
10199.69675,0.07172669806,0.7146806109,-0.1012468779,0.7253716462
10209.68575,0.1623693215,0.716765728,-0.21587277,0.7659751681
10219.67375,0.1930927487,0.609773376,-0.241488837,0.683685043
10229.66175,0.03892436642,0.4524195403,-0.2164008466,0.5030187602
10239.64975,0.09003264919,0.623612566,-0.06962922871,0.6339138269
10249.63775,0.2813766053,0.8025145608,0.2952783971,0.9002176104
10259.626750000001,0.5725719647,0.8165601575,0.03192272767,0.9978117088
10269.61475,0.253118218,0.7579634553,-0.8987679166,1.202647579
10279.60275,-0.007690367661,1.105845889,-0.4881871046,1.20883453
10289.590750000001,0.1905873264,0.4975185299,0.5829041044,0.7896995704
10299.57875,0.03500654921,-0.1187663054,0.3276743107,0.3502875214
10309.56675,0.07066773076,0.01755158722,0.1132884876,0.1346709613
10319.55575,0.02844345164,0.03491430938,-0.0005291730165,0.04503686229
10329.543749999999,-0.0620111838,0.01983434021,-0.0942870833,0.1145811592
10339.53175,-0.0937726745,-0.05109413981,-0.0940499787,0.1423001198
10349.519750000001,-0.08173694853,0.0163768816,-0.06220399573,0.1040118651
10359.50775,-0.1144744492,-0.06793119729,-0.05388677001,0.1436065147
10369.49575,-0.004999405928,-0.06102446616,-0.09681629643,0.1145529344
10379.48475,-0.232658043,-0.1654358572,-0.1324521522,0.3147099624
10389.472749999999,-0.3160317368,-0.2730211169,-0.07604552463,0.4244991293
10399.46075,-0.2148309788,-0.1320652127,-0.07493396893,0.2630754067
10409.44875,-0.1072324533,-0.02763803422,-0.08725799918,0.1409844615
10419.436749999999,0.07429413736,-0.02880689263,-0.02071434617,0.08233188961
10429.42575,0.0624331335,0.0747291702,-0.02544883668,0.1006478431
10439.41375,0.08265032016,0.2316912425,-0.04732517079,0.2505026528
10449.401749999999,0.09983360589,0.2375255942,-0.1735320581,0.3106421285
10459.38975,0.09892564293,0.2967602277,-0.2314403969,0.3891241099
10469.37775,0.1535796407,0.261728974,-0.2249435556,0.377741135
10479.365749999999,0.1575315911,0.1402659327,-0.2039690083,0.2934179449
10489.35475,0.1881253562,0.1894784385,-0.06831609026,0.2756089921
10499.34275,0.2319770434,0.1470545501,-0.08143958107,0.2864800075
10509.330750000001,0.2584854869,0.08505769193,-0.108004505,0.2927704408
10519.31875,0.3022489725,0.1443677545,-0.001517352462,0.3349608817
10529.30675,0.3484696408,0.1315793091,0.01944550037,0.3729910624
10539.295750000001,0.3196837616,-0.01973610699,-0.004603074342,0.3203254745
10549.28375,0.2562910634,-0.1740184003,0.05639113247,0.3148769167
10559.27175,0.2105575778,-0.2654840559,0.08710012436,0.3498609855
10569.259750000001,0.2045633778,-0.2684778303,0.1223879246,0.3590338772
10579.24775,0.1580054348,-0.197887904,0.1088574676,0.2756361519
10589.23675,0.07932913821,-0.123557514,0.0445376569,0.1534378516
10599.22475,0.00547441911,-0.1177711093,-0.02188086569,0.119911533
10609.212749999999,-0.0498131245,0.0111927402,-0.05226343676,0.07306224489
10619.20075,-0.03256880846,0.2228075677,-0.05435396254,0.231642597
10629.188750000001,0.09863269743,0.5660017043,-0.03120995209,0.5753784836
10639.17642,0.1806125978,0.5067430973,-0.1957242881,0.5724661336
10649.16542,0.05898097392,0.5093380916,-0.1436375834,0.5324807999
10659.15342,0.01741309958,0.5106297415,0.0101669924,0.5110277064
10669.14142,-0.1020328899,0.2723685676,0.1180381809,0.3138922735
10679.129420000001,-0.2521617963,0.1753346086,0.2022908574,0.3677626782
10689.11742,-0.3891919529,0.1808649051,0.2033844329,0.4749186432
10699.10542,-0.451260476,0.2109155005,0.09633010045,0.5073468772
10709.09442,-0.4010361095,0.03953536391,-0.001760596633,0.4029840019
10719.082419999999,-0.2648979639,-0.3705246073,-0.05021588802,0.4582368943
10729.07042,-0.00973058911,-0.542185995,0.0582822682,0.5453963332
10739.05842,0.3644494233,-0.2404293215,0.1370097645,0.4576038859
10749.04642,0.6523811594,0.2243845618,0.1185353404,0.7000001683
10759.03542,0.7348439301,0.6849720776,0.09355486572,1.00892758
10769.02342,0.6466450408,0.786199075,0.0819909735,1.021264566
10779.011419999999,0.4435691216,0.4302001208,0.1816478473,0.644066495
10788.99942,0.3046007957,0.3251806194,0.1949635653,0.4863485085
10798.98742,0.1168193836,0.1951022905,0.09747893214,0.2474142566
10808.975419999999,0.05141206389,0.1576105285,0.07157401264,0.180574412
10818.96442,0.07959169647,-0.03746135652,0.06825849518,0.1113436731
10828.95242,0.1701909043,-0.320458408,0.05731967032,0.3673473557
10838.94042,0.2199176727,-0.732604081,0.1004573576,0.7714688607
10848.92842,0.224199607,-0.9571839398,0.1696704108,0.9976244818
10858.91642,0.180825747,-1.045765749,0.204916842,1.080886148
10868.905420000001,0.0896204753,-1.143604285,0.1768238944,1.160658985
10878.89342,-0.01179343197,-0.8223161566,0.207111302,0.8480790281
10888.88142,-0.1893502017,-0.8480304569,0.1821758509,0.8878047056
10898.86942,-0.3743478823,-1.072698024,0.1710105926,1.148939516
10908.85742,-0.5398962253,-1.497812237,0.1577501307,1.599942041
10918.84542,-0.6590995371,-2.052197862,0.174827655,2.162520052
10928.83442,-0.6749824751,-2.14041422,0.2164130527,2.254730357
10938.822419999999,-0.6063830142,-1.801102635,0.1814810555,1.909085235
10948.81042,-0.49308846,-0.8967032647,0.1101701675,1.029247512
10958.798420000001,-0.1929264502,0.9370929068,0.3153701609,1.007383775
10968.78642,0.5401935562,3.78317367,0.7014781827,3.88539364
10978.77542,0.5576870368,4.204415272,-0.5306074847,4.274303091
10988.76342,0.4976174209,1.851699761,-1.56064934,2.472254328
10998.75142,0.3412549075,0.5771628696,-0.3098435189,0.7386304192
11008.73942,0.02279222734,0.06229974389,0.06828904688,0.09520576474
11018.72742,0.0792418137,-0.04114217877,0.1503434627,0.1748573724
11028.715419999999,0.01998740936,-0.08768601537,0.1644947478,0.1874749473
11038.70442,-0.0106977734,-0.1147901988,0.008185517192,0.11557783
11048.69242,0.000512143001,-0.06432171106,-0.03819576681,0.07480950078
11058.68042,0.01916066788,0.05444576383,-0.02338827789,0.06227747534
11068.66842,0.06519638143,0.1228271967,-0.01161739424,0.1395422956
11078.65642,0.08744958686,0.149436121,-0.05344720557,0.1812048241
11088.644419999999,0.07937810864,0.1266319799,-0.07251190603,0.1661159805
11098.63342,0.06758467667,0.09732982814,-0.0441194348,0.1264409289
11108.621420000001,0.02423219556,0.08150609314,-0.01967588067,0.08727876489
11118.60942,-0.05292038972,0.07884736419,-0.0009836478531,0.0949654782
11128.59742,-0.1963019564,0.05580933452,0.001697446704,0.2040882683
11138.58542,-0.2733547736,0.008093715906,-0.007040047646,0.2735651709
11148.574419999999,-0.2957377507,-0.06781366825,-0.01495556965,0.3037814672
11158.56242,-0.2863993818,-0.1096931809,-0.02981144428,0.3081329616
11168.550420000001,-0.2767015006,-0.1840241557,-0.04248923108,0.3350133506
11178.53842,-0.2404712936,-0.2253376579,-0.06070652381,0.3350951882
11188.52642,-0.178380076,-0.2096396381,-0.06649409786,0.2831778494
11198.51442,-0.1748626286,-0.1393759865,-0.07154872343,0.2347803746
11208.50342,-0.1137427615,-0.1113362485,-0.06526442841,0.1720250611
11218.49142,-0.04629306413,-0.1053639024,-0.06285391375,0.1311305235
11228.47942,0.000859010797,0.05022231996,-0.01471451819,0.0523405805
11238.467419999999,0.06104701448,0.0774539727,-0.0276434429,0.1024207782
11248.45542,0.05559179982,0.04581410408,-0.03893558577,0.08188626368
11258.44442,-0.005894157831,0.242408604,0.2910317105,0.378808829
11268.43242,-0.2061576942,0.1724870145,-0.1726190154,0.3194527971
11278.42042,-0.1612555,-0.07626464903,-0.8607639384,0.8790530079
11288.40842,-0.02566291787,-0.0485938704,-0.0594503957,0.08095862612
11298.39642,-0.08862564465,-0.04293435037,0.4598710857,0.4702970113
11308.38442,-0.09017769668,0.07340185225,0.2945553888,0.3166744795
11318.37342,-0.05038684599,0.1631811708,0.01723876119,0.1716511102
11328.361420000001,-0.002885071021,0.1203304356,-0.04322378755,0.127890708
11338.34942,0.09350085206,-0.01354858339,-0.007485020757,0.09477340863
11348.33742,0.186799226,-0.03155391455,0.06081440493,0.1989673144
11358.32542,0.2599793957,-0.03087154448,0.0977536051,0.2794603832
11368.31442,0.2776470136,0.0242834866,0.06214245379,0.2855507598
11378.30242,0.2519153361,0.08065766215,0.03105397761,0.2663293911
11388.290420000001,0.2561136735,0.1161227793,0.02777252018,0.2825774699
11398.27842,0.2392280842,0.04465167761,0.07892293945,0.2558372118
11408.26642,0.2069378955,-0.02575873911,0.09668488026,0.2298581548
11418.254420000001,0.1926597624,-0.0934297353,0.09748887241,0.2352678892
11428.243419999999,0.1646009844,-0.1524714106,0.1128864916,0.251166031
11438.23142,0.1618619659,-0.1458693194,0.1126238054,0.2452779564
11448.21942,0.1340487162,-0.08699136615,0.09453427434,0.1856698282
11458.20742,0.03185438834,-0.003333497643,0.1252187079,0.1292499094
11468.19542,0.008855736014,0.04429207385,0.1465980287,0.1533988066
11478.18442,-0.005548203662,-0.01262530804,0.1274388957,0.1281828893
11488.172419999999,0.007180764545,-0.08374791563,0.1406044865,0.1638136086
11498.16042,-0.03328120032,-0.1877880085,0.1009151946,0.2157680489
11508.14842,-0.05538881008,-0.2217375273,0.07966992125,0.2420387317
11518.136419999999,-0.1385412599,-0.21977871,0.03644511044,0.2623444456
11528.12442,-0.2713493796,-0.1817419875,0.01520685375,0.3269432431
11538.11342,-0.4814895576,-0.04703149438,-0.1035012719,0.4947288842
11548.10142,-0.4714691111,0.04549952388,0.02353738189,0.4742439643
11558.08942,-0.5672244302,0.09510730147,-0.1076434395,0.5851290995
11568.07742,-0.4511528872,0.1150275958,-0.05488810569,0.4688101743
11578.065419999999,-0.2146471205,0.06873928249,-0.08100557148,0.239500267
11588.05342,0.03127154885,-0.02296669364,-0.02773012787,0.04769002805
11598.04242,0.06184049992,-0.1239194566,0.06362121463,0.1524071458
11608.030420000001,0.06532286402,-0.1969505954,0.1258753502,0.24269573
11618.01842,0.3075913907,-0.2888840282,0.1805605575,0.4589864489
11628.00642,0.4703516716,-0.4466360593,0.1381588885,0.6631759517
11637.99542,0.4025634388,-0.3734160554,-0.0750408268,0.5541913012
11647.98442,0.3518219591,-0.1710211176,-0.1555704349,0.4209858356
11657.97242,0.3392037043,-0.0990477401,-0.1305101457,0.3766994903
11667.96042,0.3056007427,-0.08689664125,-0.1138768637,0.3375067114
11677.94842,0.1338431317,-0.03172406852,-0.1595520964,0.2106591368
11687.93642,0.1110264557,-0.04071591675,-0.1239861149,0.1713394771
11697.92442,0.03708715299,-0.04370559812,-0.1409328076,0.1521436574
11707.91342,-0.05023525693,-0.01518521905,-0.1144507679,0.1259092935
11717.90142,-0.02297665218,-0.0774487102,-0.06503360957,0.1037092071
11727.88942,-0.1638837503,-0.1347789055,-0.101677233,0.2352902393
11737.87742,-0.3233503312,-0.2079012609,-0.07208900616,0.3911204364
11747.86542,-0.4749539785,-0.3083511633,-0.1278628188,0.5805261596
11757.85442,-0.6597856347,-0.4416887301,-0.3210836215,0.85644656
11767.842419999999,-0.9720513627,-0.4794325072,-0.3715244812,1.145761677
11777.83042,-1.109602287,-0.469802143,-0.3483794475,1.254312373
11787.818420000001,-1.152175791,-0.5003462434,-0.5153316338,1.357726817
11797.80642,-1.138739182,-0.5202519196,-0.595266434,1.386265166
11807.79442,-1.240485631,-0.6293305582,-0.6109129983,1.519235414
11817.78342,-1.285778456,-0.5987279856,-0.6104770884,1.544144978
11827.77142,-1.256417978,-0.5782703322,-0.6964678498,1.548563909
11837.759419999998,-1.157356716,-0.4490989065,-0.7225495014,1.436399032
11847.74742,-0.8909668538,-0.1929703957,-0.7750238764,1.19654566
11857.735419999999,-0.5440403663,0.2855031681,-0.7015968812,0.9325932462
11867.72442,-0.2003263392,0.871023463,-0.4896875001,1.019120387
11877.71242,-0.03424189785,1.34668744,-0.3359485593,1.388380712
11887.70042,0.1575711511,1.641567203,-0.2658398589,1.670401862
11897.68842,0.4381110381,1.835870179,-0.2872435918,1.909154126
11907.67642,0.8092075031,1.829929408,-0.2464007905,2.01597911
11917.66442,1.183105808,1.637662432,-0.08553014696,2.022125862
11927.65342,1.553660601,1.296286195,0.1719680741,2.030712235
11937.64142,1.654778402,0.7776843596,0.3690733284,1.865288086
11947.62942,1.409455107,0.220698477,0.6179556772,1.554715645
11957.61742,0.9262017368,-0.3020449412,0.6693125032,1.18197294
11967.60542,0.3991391996,-0.6412846059,0.5643875805,0.9429164265
11977.594420000001,0.03392965654,-0.7438845295,0.4643311957,0.8775641709
11987.58242,-0.2416828732,-0.6226115227,0.2953729758,0.7302745471
11997.57042,-0.3926253283,-0.3050088948,0.09365529165,0.5059213259
12007.558420000001,-0.5050083746,0.05331666648,-0.1439064091,0.5278116898
12017.54642,-0.571185261,0.3266658121,-0.2789069241,0.7146693134
12027.53442,-0.6150105078,0.4475394541,-0.2766311878,0.8093542498
12037.52342,-0.6957434528,0.4219099385,-0.249217979,0.8509856341
12047.511419999999,-0.7678195951,0.3737587023,-0.1663809134,0.8700144289
12057.49942,-0.7572704872,0.3384842044,-0.04307585299,0.8305935688
12067.487420000001,-0.6708570452,0.2781122875,0.1708933559,0.7460564045
12077.47542,-0.5664707607,0.1249193305,0.3566149583,0.6809318544
12087.46342,-0.4451260158,0.0578207767,0.4307158452,0.6220904689
12097.45242,-0.3061524275,0.02137917459,0.4321101138,0.5300052154
12107.440419999999,-0.1955717854,0.1509423637,0.2214939907,0.3318004044
12117.42842,-0.2123798991,0.236408776,-0.1995154765,0.3752342686
12127.41642,-0.3488229588,0.3208080715,-0.4522844696,0.6551003868
12137.404419999999,-0.5871279503,0.3808461124,-0.4620882037,0.8386229781
12147.39342,-0.80729656,0.3476000136,-0.3318144317,0.9394968453
12157.38142,-0.8072642541,0.3131739467,-0.2537899169,0.9023097133
12167.369419999999,-0.6183823778,0.266632449,-0.2482928033,0.7177318052
12177.35742,-0.3983988325,0.282991789,-0.1786607972,0.5203130431
12187.34542,-0.2006457433,0.3291128719,-0.03849046648,0.3873699947
12197.333419999999,-0.06165578272,0.2894576401,0.09666192994,0.3113369391
12207.32242,-0.03747465894,0.09402322769,0.2476786995,0.2675620593
12217.31042,0.09174482357,0.1897257757,0.2824478517,0.3524056918
12227.298420000001,-0.1352582676,0.03766659379,0.3267098124,0.3556021271
12237.28642,-0.2531886404,0.1029694676,0.2634616502,0.3796303992
12247.27442,-0.2258034252,0.2467256033,0.15620822,0.3691364492
12257.26342,-0.1516230162,0.3863074118,0.09547582224,0.4258386879
12267.251419999999,-0.2772838102,0.3011152339,0.04696600556,0.4120224522
12277.239420000002,-0.1773184226,0.4255884218,9.063184261e-05,0.4610502532
12287.227420000001,-0.08774529152,0.05537020862,0.02018458843,0.1057001126
12297.21542,-0.04047680218,-0.3007018358,0.037049274,0.3056674897
12307.20342,0.002920647673,-0.3570754266,0.181745642,0.4006780114
12317.19242,-0.01441049952,-0.4372366601,0.4428442861,0.6224906595
12327.180419999999,-0.05168196771,-0.5549147987,0.5706667592,0.7976603348
12337.16842,-0.09942576259,-0.617459541,0.5966434532,0.8643640305
12347.15642,0.020983446,-0.0309534055,0.6228607602,0.6239823274
12357.144419999999,0.03373421336,0.2261913514,0.7566166954,0.7904235247
12367.13342,0.0152578707,0.3984783912,0.8306326514,0.9213948299
12377.12142,-0.02345390375,0.3841269851,0.7588257734,0.8508349903
12387.10942,-0.008228777451,0.2448895776,0.5848974203,0.6341479403
12397.09742,-0.06752335399,0.03071191549,0.4379903662,0.4442276286
12407.08542,-0.2277135278,-0.2966152167,0.3949108587,0.5438645271
12417.073419999999,-0.3646911326,-0.5724511832,0.3751993831,0.7755479073
12427.06242,-0.2190909313,-0.6555313468,0.3120735008,0.7583614261
12437.05042,-0.04029067799,-0.5628898162,0.2922777522,0.6355270004
12447.03842,0.0990932022,-0.3385198724,0.2177520651,0.4145251845
12457.02642,0.1562675692,-0.001679905057,0.1107743311,0.1915550252
12467.01442,0.06825732574,0.2763780034,0.07484311782,0.2943558315
12477.003420000001,0.09105649665,0.714128049,-0.3454241185,0.7984910629
12486.99142,-0.08749934301,0.5413422418,-0.3162345256,0.6330180352
12496.979420000001,0.04084309369,0.1794346762,-0.3543617338,0.3992958799
12506.96742,0.2593528117,-0.2633118153,-0.2323003031,0.4365322712
12516.95542,0.4517589511,-0.5618969589,-0.01640918747,0.7211682216
12526.94342,0.3774449332,-0.6068614626,0.1212847012,0.7248830879
12536.93242,0.3650228159,-0.487856006,0.008413704783,0.6093569801
12546.920419999999,0.4427837674,-0.2434996945,-0.3384238319,0.608177816
12556.90842,0.5968576075,0.03781277418,-0.5147964674,0.7891034231
12566.896420000001,0.6900420521,0.1773051202,-0.4243517357,0.8292584247
12576.88442,0.7691522487,0.2266246301,-0.2987617296,0.8556941484
12586.872420000002,0.8412719527,0.1522995025,-0.2103903475,0.8804531419
12596.86142,1.104266849,0.1915226251,-0.2411882901,1.146410913
12606.84942,1.273331196,0.1427129924,-0.3743347261,1.334865469
12616.83742,1.323957412,0.0235566777,-0.2201974437,1.342350573
12626.82542,1.359369466,-0.1135698849,-0.1475772911,1.372065057
12636.81317,1.33291827,-0.169751687,-0.1239229649,1.349386398
12646.80217,1.225868688,-0.1215337926,-0.05571585216,1.23313777
12656.79017,1.197635335,0.0545942831,-0.1935750709,1.214406126
12666.778170000001,0.988633043,-0.02933080316,-0.07257739484,0.9917273153
12676.76617,0.8807464325,-0.1678221059,-0.03611708164,0.8973198878
12686.75417,0.7772337585,-0.2894962317,-0.005185310841,0.8294138116
12696.74217,0.7560745854,-0.4283471382,0.07169673108,0.8719349005
12706.73117,0.7833899995,-0.4510121155,0.02848938882,0.9043912123
12716.719169999998,0.7947430265,-0.4761036873,-0.09792098165,0.9316006214
12726.70717,0.8589028428,-0.3531917059,-0.01959584691,0.9288931433
12736.69517,0.800662236,-0.2890155905,0.06885790788,0.8540090393
12746.68317,0.8742741495,-0.2733087999,-0.05106548846,0.9174206628
12756.67217,0.9884730486,-0.1075688875,-0.1700353501,1.008742808
12766.66017,0.971464083,-0.01690254629,-0.2613003731,1.006134209
12776.64817,0.9912267217,0.2696116054,-0.2444878008,1.055933292
12786.63617,0.9792582753,0.3849455953,-0.2451836926,1.080391098
12796.62417,1.040708638,0.336204375,-0.3586724474,1.150979485
12806.612169999999,1.168645936,0.2676329076,-0.3797404039,1.25760227
12816.60117,1.217252378,0.05794766128,-0.3489822954,1.267615843
12826.58917,1.141021716,-0.1584320623,-0.3029179305,1.191129945
12836.57717,0.9569908355,-0.2625411522,-0.2916749773,1.034327612
12846.56517,0.7809396507,-0.2217913216,-0.330011662,0.8763365937
12856.55317,0.629772023,-0.07352113545,-0.4017236689,0.7505998031
12866.54217,0.5741250949,-0.0464625603,-0.3626180023,0.6806395593
12876.53017,0.7608835548,-0.009160248041,-0.2914878664,0.8148575768
12886.518170000001,0.7557659255,-0.1175401443,-0.2590241251,0.8075217131
12896.50617,0.7964102139,-0.1319266337,-0.135430797,0.8185446635
12906.49417,0.8623706071,-0.1262402165,-0.07398767017,0.8746964225
12916.48217,0.8707556605,-0.0389331007,-0.09993476272,0.8773358328
12926.471169999999,0.8120564859,-0.05341665387,-0.1444935427,0.826539448
12936.459169999998,0.7704981315,-0.1338094372,-0.1452898604,0.7954127731
12946.447170000001,0.6321637534,-0.2285618126,-0.1903602717,0.6986476554
12956.43517,0.4919861868,-0.3405424243,-0.2269229112,0.6399324639
12966.42317,0.4916319186,-0.5284397757,-0.3167015719,0.7881944085
12976.411170000001,0.5821945448,-0.6805363798,-0.513497143,1.032356318
12986.400169999999,0.5411644864,-0.6493642884,-0.6689027596,1.077944285
12996.38817,0.2876653223,-0.5730540311,-0.7865417218,1.014785761
13006.37617,-0.2140384253,-0.4932822222,-0.732795285,0.9089162381
13016.364169999999,-0.8182025673,-0.3644247919,-0.4722492027,1.012561198
13026.352169999998,-1.132187669,-0.2848605591,-0.3042657137,1.20647092
13036.34117,-1.454623825,-0.0308423084,-0.1188013887,1.459792961
13046.329169999999,-1.728706942,0.02546930194,0.08982551157,1.731226444
13056.31717,-1.814232265,0.1413190162,0.2724224351,1.840006456
13066.30517,-1.600065859,0.3099492073,0.4600736187,1.693501402
13076.293169999999,-1.246404183,0.2628908157,0.4603197864,1.354447959
13086.28117,-0.9079283839,0.2723779231,0.3599908483,1.013961091
13096.27017,-0.690560554,0.359590314,0.4002122368,0.8754135635
13106.258170000001,-0.3581559189,0.3113414294,0.4622913945,0.6625122499
13116.24617,-0.09194483489,0.1500407231,0.3632880932,0.4036636098
13126.23417,0.05710237774,0.07584306479,0.3310882075,0.3444303314
13136.22217,0.232784818,0.04266303957,0.2506881883,0.3447513222
13146.21117,0.3289313158,0.1147364044,0.0623623091,0.3539057934
13156.19917,0.1781855647,0.2478991395,0.002883408219,0.3053070469
13166.187170000001,0.01288507059,0.2625937772,-0.1029805773,0.2823588429
13176.17517,-0.4866133265,0.2847623259,-0.06060682878,0.5670584621
13186.16317,-0.7834966381,0.2130760467,-0.004612283707,0.8119665367
13196.151170000001,-0.8110542,0.1149223459,0.1181682815,0.8276350667
13206.140169999999,-0.7847855106,0.03234328866,0.2876420796,0.8364641964
13216.12817,-0.5685084788,-0.04032356858,0.4092140253,0.7016295312
13226.11617,-0.2251134172,-0.1559177595,0.4267561108,0.50705737
13236.10417,0.07510916613,-0.08672005534,0.3506623466,0.3689523495
13246.09217,0.3885390016,-0.06315168321,0.223680557,0.4527512369
13256.080170000001,0.5096806654,-0.01455079615,0.1000255407,0.5196067889
13266.069169999999,0.491854259,0.0005923229456,0.02890512586,0.4927032263
13276.05717,0.4620958051,-0.09543649971,-0.03711490899,0.4733055832
13286.04517,0.3411739236,-0.2056723022,-0.08334153414,0.4069969943
13296.033169999999,0.1802225885,-0.2152810317,-0.06410360992,0.2879850288
13306.02117,0.1240595705,-0.1420399779,-0.07170966804,0.2017632495
13316.01017,0.03784537241,0.01789715767,-0.05222966909,0.06693667753
13325.99817,-0.1321298336,0.1384345847,0.06178124204,0.201095373
13335.98617,-0.2045971089,0.1348853248,0.1846455686,0.3068354833
13345.97417,-0.3185743255,0.1381036323,0.2938763809,0.4548906917
13355.962169999999,-0.3324436286,0.1394900072,0.3744543748,0.5198002569
13365.95017,-0.2973416602,0.1876967919,0.2996278484,0.4619729387
13375.93917,-0.3582926342,0.2407772309,0.2206740649,0.484813706
13385.92717,-0.3539389436,0.2010606033,0.1357359485,0.4290948493
13395.91517,-0.2941876721,0.1984977686,0.06953640416,0.3616394089
13405.90317,-0.2657330376,0.2669984847,-0.003960319161,0.376719952
13415.89117,-0.3522198987,0.3314728081,-0.05593563437,0.4868900027
13425.880169999999,-0.4640691673,0.3307097465,-0.04761168435,0.5718356415
13435.868170000002,-0.5245096062,0.2367800742,-0.0317242147,0.576351938
13445.856170000001,-0.4321535294,0.04884003818,0.04158174321,0.4368879303
13455.84417,-0.213191383,-0.1492460865,0.1781377637,0.3153696609
13465.83217,-0.0896648776,-0.2749495286,0.3367065047,0.4438561747
13475.82017,0.07860724462,-0.2687865633,0.3823779367,0.473960127
13485.80917,0.3931258134,0.04199002504,0.2679246837,0.4775926125
13495.79717,0.5186594304,0.4493784034,0.1259917098,0.6977266407
13505.78517,0.254178702,0.5823803401,0.060658869,0.6383205867
13515.773169999999,-0.2507209144,0.4129718846,0.04699173331,0.4854018721
13525.761170000002,-0.2389427583,0.2960129535,0.003084990978,0.3804297932
13535.75017,-0.1234561379,0.2014646459,-0.06213017464,0.2443145106
13545.73817,-0.03324237116,0.1115771538,0.006997801512,0.1166339818
13555.72617,-0.05822432594,0.03493302047,0.1177863121,0.1359558876
13565.71417,-0.1328400053,-0.04271566451,0.1922090882,0.2375193226
13575.70217,-0.3565982938,-0.0004999369383,0.229644717,0.4241453632
13585.69017,-0.7187712499,0.1172641557,0.3525298011,0.8091107789
13595.679170000001,-0.7803943978,0.08668555677,0.334713335,0.8535589134
13605.66717,-0.4221862925,-0.08782868743,0.3542927366,0.5581025776
13615.65517,-0.1164265421,-0.2534972638,0.4557746726,0.5343655628
13625.64317,0.09080353148,-0.3844380569,0.4778343169,0.6199705924
13635.63117,0.3440321523,-0.3352705747,0.3893150733,0.6183289629
13645.619419999999,0.262719273,-0.1166303176,0.3944484901,0.4880713665
13655.60842,0.2080859598,0.01160146058,0.4221068434,0.4707531708
13665.59642,0.1730374203,0.1130781341,0.4070730673,0.456549116
13675.58442,-0.323662134,0.1744294596,0.4342656898,0.5690074716
13685.57242,0.5595157535,-0.1003013831,0.3367674619,0.6607046006
13695.56042,1.184310115,0.1525509328,0.1399648011,1.202269679
13705.549420000001,0.7091604008,0.4188372266,0.3133043396,0.8811882351
13715.53742,0.4652993118,0.2624803412,0.1358729196,0.5512357294
13725.52542,0.1642967099,0.1034056699,0.05511103079,0.2018003151
13735.51342,-0.1048083804,-0.01140382469,0.05345860764,0.1182060343
13745.50142,-0.3173127522,-0.1445145196,-0.00398955524,0.3486943441
13755.48942,-0.3116152618,-0.2373110014,-0.05986891016,0.3962383994
13765.478420000001,-0.4362993149,-0.1975177753,-0.08410941973,0.4862558568
13775.46642,-0.4698559739,-0.1060106045,-0.06476712272,0.4860017126
13785.45442,-0.4315364289,-0.03803379893,-0.03846415401,0.4349134976
13795.442420000001,-0.4396940987,-0.0187683928,-0.05018679813,0.4429468001
13805.43042,-0.445817778,-0.02814089477,-0.1433474153,0.4691416445
13815.41942,-0.4788036026,-0.01267325521,-0.2217819661,0.5278264314
13825.40742,-0.6794495286,0.07065950811,-0.2548544025,0.7291057499
13835.395419999999,-0.7432696947,0.1867448652,-0.1959736718,0.7910304443
13845.38342,-0.7196656546,0.2261176765,-0.1495840555,0.7690404721
13855.371420000001,-0.6757745536,0.1850135046,-0.03033126175,0.7012996717
13865.35942,-0.4867464969,0.1351063496,0.08797135949,0.5127522189
13875.34842,-0.1316843397,0.03867231488,0.1966588193,0.239814521
13885.33642,0.3137706916,-0.07311709285,0.2641795421,0.4166401165
13895.324419999999,0.6962580809,-0.1200848526,0.2881216975,0.7630267358
13905.31242,0.9521738993,0.008508868217,0.1946700351,0.9719073813
13915.30042,0.9348056222,0.1721607399,0.08544463143,0.9543592912
13925.288419999999,0.8458021561,0.2280355632,-0.04906062439,0.8773758888
13935.27742,0.653730112,0.2253972995,-0.1437058496,0.7062707506
13945.26542,0.4475551685,0.1070578408,-0.1457406807,0.4827083552
13955.253420000001,0.3080461944,-0.04965689421,-0.1253422303,0.3362572523
13965.24142,0.1925311602,-0.08940509677,-0.1337590049,0.250904345
13975.22942,0.04581198446,-0.003463890553,-0.1401688689,0.1475060957
13985.218420000001,-0.08829339489,0.06960116208,-0.09005706131,0.1440497124
13995.20642,-0.1481330324,0.1542746919,-0.0291090475,0.2158504402
14005.19442,-0.1791198767,0.1550687438,0.01947824478,0.2377175794
14015.182420000001,-0.1593635603,0.129479574,0.06544554591,0.215510612
14025.17042,-0.2126944062,0.126337865,0.06508696541,0.2558055505
14035.15842,-0.2473099595,0.1745054734,0.1097440517,0.3219598316
14045.14742,-0.2958460521,0.115864917,0.1379450266,0.3463789773
14055.135419999999,-0.3457132998,-0.07658975422,0.202273462,0.4077967994
14065.123420000002,-0.2452282045,-0.245621649,0.280055902,0.4459800164
14075.111420000001,0.04778552938,-0.2495164794,0.2718164442,0.3720565947
14085.09942,0.2749129469,-0.0818464011,0.1211468531,0.311371999
14095.08842,0.379854315,0.1364196342,-0.02811882153,0.404586561
14105.07642,0.366609531,0.3001960516,-0.1212759304,0.4891094651
14115.064419999999,0.2838370406,0.3247730684,-0.186315241,0.4698450602
14125.05242,0.1181328327,0.2514466453,-0.2329635966,0.3625642273
14135.04042,0.002986136489,0.1677782518,-0.2035803147,0.2638245692
14145.028419999999,-0.07833160322,0.0817218554,-0.1072474368,0.1559368924
14155.01742,-0.09128219917,0.006246580482,-0.04951597631,0.1040350497
14165.00542,-0.00860889215,0.005150227547,-0.002898026258,0.01044205076
14174.99342,-0.0007260414585,-0.03168138385,0.07146715477,0.07817794721
14184.98142,-0.005098698959,-0.1404705852,0.1667875873,0.2181194198
14194.96942,-0.02923790552,-0.2313901109,0.1850404018,0.2977183045
14204.957419999999,-0.1173013587,-0.2647116387,0.1735899456,0.337587514
14214.94642,-0.1803570744,-0.2120691562,0.09450269938,0.2939944923
14224.93442,-0.1800229792,-0.07800302625,0.03605276227,0.1994806928
14234.92242,-0.06593627349,-0.01268085659,0.03238714278,0.07454745671
14244.91042,-0.018459002,0.003260992169,0.03845421374,0.04277961406
14254.89842,0.06147477485,0.001186400056,0.04904746816,0.078652461
14264.887420000001,0.1407085304,0.06661089599,0.03125439093,0.1587851975
14274.87542,0.1145408516,0.2094554508,0.01625482097,0.2392810309
14284.863420000001,0.125436736,0.3324124557,0.01380001366,0.3555599187
14294.85142,0.1363157365,0.3288240194,0.007562350184,0.3560398923
14304.83942,0.1109291727,0.2179660732,-0.01043669522,0.2447925959
14314.82742,0.05812241994,0.08416949987,-0.01311194256,0.1031244076
14324.81642,-0.004368637539,-0.03953945696,0.002552894354,0.0398618981
14334.804419999999,-0.08928895645,-0.1267898548,0.06146242261,0.1668107143
14344.79242,-0.1685989085,-0.2122334629,0.1062924403,0.2911472438
14354.780420000001,-0.1335644388,-0.2851494116,0.1026829541,0.3311999929
14364.76842,-0.1069070558,-0.3274253654,0.08121899486,0.3538827682
14374.75742,-0.131321922,-0.2874099451,0.03136578038,0.317543282
14384.74542,-0.1625811003,-0.1820442885,0.00708667919,0.244178128
14394.73342,-0.1312915896,-0.05234018147,0.009770697355,0.141677248
14404.72142,-0.1796390729,0.02837712228,-0.001737938672,0.1818748966
14414.70942,-0.2023720606,0.01360939443,0.03593333289,0.2059875505
14424.697419999999,-0.08699238941,-0.03048679769,0.06526428223,0.1129448856
14434.68642,-0.02069943577,-0.03742451906,0.0713126421,0.08315379842
14444.67442,-0.03875797659,-0.0010981071,0.07307616234,0.08272552261
14454.66242,-0.02167734604,0.09245441973,0.04997469038,0.1073088847
14464.65042,0.003654984869,0.2456725198,-0.05490374699,0.2517593441
14474.63842,-0.0540109868,0.3446050698,-0.1315225911,0.3727841638
14484.62642,-0.1864540393,0.3630717462,-0.140223248,0.431565477
14494.61542,-0.2688661585,0.2810692245,-0.1118063647,0.4047092578
14504.603420000001,-0.3223125966,0.1214004761,-0.08427606538,0.3545785396
14514.59142,-0.2407604932,-0.04546093225,-0.02530499518,0.2463181971
14524.57942,-0.1244014134,-0.1977235973,-0.007955721617,0.233738371
14534.56742,-0.0402290995,-0.2961948019,-0.01440943971,0.2992613792
14544.556419999999,0.08197365113,-0.3026033503,0.008526702225,0.3136258467
14554.544419999998,0.02127860248,-0.2887243992,0.03013596475,0.2910716991
14564.532420000001,0.05206879757,-0.1625619507,0.005612596124,0.1707894866
14574.52042,0.1303328655,0.05744597018,-0.08523486257,0.1659869787
14584.50842,0.03952885889,0.2129719663,-0.1303071012,0.252783563
14594.496420000001,-0.05768468276,0.3031354469,-0.1234015395,0.3323350143
14604.485419999999,-0.0905987693,0.3278937274,-0.1246119131,0.3622851948
14614.47342,-0.1820961095,0.2721048582,-0.1170043932,0.3476925006
14624.46142,-0.2044906896,0.193580845,-0.08806082189,0.2950333778
14634.449419999999,-0.3061098524,0.07497416854,0.02516290784,0.3161606231
14644.437290000002,-0.222584131,-0.02969683886,0.1220885472,0.2555997085
14654.42629,-0.2015855736,-0.1253964633,0.1710537158,0.2926096208
14664.41429,-0.2077448478,-0.1947678298,0.1928644149,0.3439318419
14674.40229,-0.08770841751,-0.2045385271,0.1909082289,0.2932144735
14684.39029,-0.01116650082,-0.1401840717,0.1778050572,0.2266956176
14694.378289999999,0.07282827694,-0.07139274895,0.156563146,0.186849943
14704.36629,0.1329961625,-0.01924494088,0.145493782,0.1980575361
14714.35529,0.1694337082,0.05437384307,0.1352221245,0.2234934433
14724.34329,0.2236553774,0.08322342038,0.1115284757,0.2634131099
14734.33129,0.2808219603,0.08084184945,0.1005938901,0.3090558344
14744.31929,0.3241429944,0.08079039395,0.1186401518,0.3545014163
14754.30729,0.2498950866,0.02433377266,0.1091850579,0.2737901818
14764.29529,0.2961670642,-0.04468500674,0.137432372,0.3295441345
14774.284290000001,0.3736862333,0.008953841329,0.1552833366,0.4047647303
14784.27229,0.349391235,0.004007681608,0.1232272924,0.3705067641
14794.26029,0.3043540797,-0.003155742288,0.09339567527,0.3183773182
14804.24829,0.2192916369,0.007166347504,0.07553199291,0.2320458156
14814.23629,0.170813176,0.007694351077,0.06740129337,0.1837913993
14824.225289999998,0.1143009696,0.04182104051,0.04073214278,0.1283464785
14834.21329,0.002095349729,0.04079368472,0.001537379175,0.04087638363
14844.20129,-0.02490281638,0.05897092402,-0.03581288025,0.07335040923
14854.18929,-0.06939358592,0.1065058637,-0.05053631544,0.1367950582
14864.177290000001,-0.122224495,0.1347713041,-0.04943353057,0.1885359529
14874.16529,-0.1468949211,0.1230838895,-0.05031236708,0.1981390824
14884.15429,-0.1742373785,0.110965535,-0.04728307083,0.2119143762
14894.14229,-0.1839617367,0.0629750973,-0.02043601871,0.1955132075
14904.13029,-0.1701751716,0.03279703259,0.009179105312,0.1735496769
14914.118289999999,-0.1495677564,0.02204224885,0.02166510344,0.1527277028
14924.10629,-0.1640084057,0.000774756074,0.02524301469,0.165941457
14934.09529,-0.1444582036,-0.02152067721,0.0388056314,0.1511197841
14944.08329,-0.1013391908,-0.01343807101,0.01978639305,0.104123555
14954.07129,-0.09130533222,0.005851893425,-0.01076180041,0.092123421
14964.05929,-0.04689346354,-0.004684204459,-0.0654500775,0.08065141871
14974.04729,0.03467662007,-0.03002662182,-0.09907566056,0.109178993
14984.03529,0.04881423734,-0.003127675653,-0.1061803199,0.1169053996
14994.024290000001,0.00307991121,0.007000871301,-0.07293012813,0.07333008687
15004.01229,0.05111968484,-0.006088705659,-0.04623671159,0.06919630058
15014.00029,0.1169692003,-0.002109675407,-0.04184969187,0.1242483048
15023.98829,0.121515849,-0.01624473453,0.01935603797,0.124115467
15033.97629,0.09610282648,-0.04927507102,0.03710584581,0.1141955764
15043.96429,0.06161094189,-0.07067704976,0.07209441483,0.1182740807
15053.953290000001,0.03315934069,-0.06796043336,0.07780889869,0.1085006318
15063.94129,-0.08930298977,-0.006677520275,0.1465370715,0.1717344653
15073.92929,-0.36362175,0.1568164766,0.2275432277,0.4567144675
15083.917290000001,0.07979636729,0.02507461488,-0.03499500096,0.09066888461
15093.90529,-0.03438122604,0.01898415506,0.02025709391,0.04419068568
15103.89429,0.02375749301,0.01828716695,0.07139918089,0.07743824624
15113.88229,0.04828955937,-0.01071209908,-0.003966166377,0.04962218341
15123.870289999999,0.03238688696,-0.00603666544,0.0167429173,0.03695506807
15133.858289999998,0.08034805208,-0.02500269413,-0.004905229211,0.08429119445
15143.846290000001,0.1250192813,-0.04679702103,-0.01090549573,0.1339354759
15153.83429,0.0006198414043,-0.02166568816,-0.01422496006,0.02592558071
15163.82329,-0.1279950755,0.01228207648,0.03580776393,0.1334757833
15173.81129,-0.07649188645,0.03708070278,0.0292506963,0.08989766652
15183.799289999999,-0.008417213112,0.01714637518,-0.01412146434,0.02375422938
15193.78729,0.04189632341,0.0005642563105,0.0006044559181,0.04190448267
15203.77529,0.06892398141,-0.01827079475,0.01817066118,0.07358335466
15213.764290000001,0.0361073241,-0.02957229316,0.01768548846,0.04991027829
15223.75229,-0.02713828001,-0.03170301855,0.0102891992,0.04298180135
15233.74029,-0.02646493658,-0.03132119536,0.02333857656,0.04718155681
15243.72829,-0.01950601906,0.02605694711,0.02475667253,0.04089427964
15253.71629,-0.05206704341,0.04257474661,0.02336371958,0.07120006637
15263.70429,-0.01915518612,0.05178352654,0.01689143658,0.05773885525
15273.693290000001,-0.02092871971,0.03811741412,0.04775362551,0.06458604584
15283.68129,-0.02396397281,0.03580893338,0.07102218166,0.08307046401
15293.66929,-1.388713717e-06,0.04346059978,0.04995232478,0.06621222309
15303.657290000001,0.01254783243,0.06173022509,0.03987669513,0.07455346808
15313.64529,-0.002198772356,0.0385074234,0.05735943139,0.06912134711
15323.63329,-0.03430733185,-0.02592889309,0.05605009362,0.07064639772
15333.62229,-0.05520692512,-0.03022718132,0.02703971788,0.06850279859
15343.61029,-0.04708996654,-0.009833262563,0.01123410925,0.04940003251
15353.59829,-0.04669564493,-6.373465061e-05,-0.001751241088,0.04672851552
15363.586290000001,-0.0532908291,-0.01229961812,-0.01519048154,0.05676216875
15373.57429,-0.007977429405,-0.03204508066,-0.003359225392,0.03319353807
15383.56329,0.07946382517,-0.0628341794,-0.04121117592,0.1093663323
15393.55129,0.1389957164,-0.07297383606,-0.05055137202,0.1649255321
15403.539289999999,0.06402598813,-0.01272412598,-0.01034372449,0.06609253494
15413.52729,0.01690919749,-0.003084990978,-0.009960147142,0.01986561503
15423.51529,0.04336276855,0.01557522833,-0.002061143517,0.04612120713
15433.50329,0.02000241112,0.0816972971,0.02668727696,0.0882425949
15443.49229,0.1162308431,0.100068664,0.01490323707,0.1540955965
15453.48029,0.1801926946,0.09720294356,-0.04219409287,0.2090410507
15463.468289999999,0.05270252611,0.09156388879,-0.05377581909,0.118546787
15473.45629,-0.03985520661,0.03973358452,-0.02210262135,0.06046255952
15483.44429,-0.04229609024,0.01214057386,0.02659430623,0.05141604717
15493.432289999999,0.01054956475,0.002780935764,0.04528142273,0.04657718503
15503.42129,0.02982672013,-0.01333632946,0.00655589819,0.03332372606
15513.40929,0.0304373339,-0.01525480092,0.0009109961987,0.03405833466
15523.39729,0.04838468626,-0.04310158074,0.04514693677,0.07897512284
15533.38529,0.1576037859,-0.0455217433,0.03683935896,0.1681318554
15543.37329,0.1804800852,-0.04872309387,-0.007825913429,0.1871049063
15553.362290000001,0.1383871857,-0.03906173944,-0.03648560241,0.1483510426
15563.35029,0.09562090628,0.002329530716,-0.09146507084,0.1323429016
15573.33829,0.03104056556,0.04225607336,-0.08474720478,0.09965531177
15583.32629,0.00247867126,0.06810135126,-0.07647573352,0.1024327861
15593.31429,-0.02611812361,0.05655660868,-0.07740090922,0.09935646488
15603.30229,-0.03493141249,0.04859679401,-0.06486827955,0.08825953579
15613.29129,-0.009569279049,0.03765782297,-0.05378722116,0.06635320559
15623.279289999999,-0.01488688314,-0.01293813407,-0.03442942902,0.039678712
15633.26729,-0.04180419322,-0.05499891043,-0.007378455251,0.06947598377
15643.25479,-0.06352214087,-0.06851650357,0.002457000017,0.09346448786
15653.24279,-0.04943502892,-0.05676301539,0.002028983831,0.07529926145
15663.23079,-0.04943753226,-0.03143170774,-0.010496483,0.05951636752
15673.21979,-0.009609168023,-0.00926082015,-0.03244912326,0.03508624375
15683.20779,-0.007548810225,0.02756494403,-0.01145308748,0.03078934699
15693.195790000002,-0.01491065573,0.05259219646,0.008237411231,0.05528220082
15703.183790000001,-0.00558747137,0.0559362191,0.01730249584,0.0588171472
15713.17179,0.05300077066,0.05091521502,0.0141508466,0.07484442043
15723.16079,0.02835744275,0.04798283637,0.02360930264,0.06053012734
15733.14879,0.05013746224,0.03102591097,0.05725768983,0.08218768349
15743.136789999999,0.07527244963,0.02469688475,0.06807489261,0.1044512747
15753.12479,0.1222676547,0.007172779441,0.03348159537,0.1269718291
15763.11279,0.1525657883,-0.00780369401,0.01948277637,0.1540025844
15773.10079,0.136308263,-0.02876362324,0.02149977341,0.1409593163
15783.08979,0.142818827,-0.03223686934,0.01811452791,0.1475281981
15793.07779,0.1786258601,-0.04514576733,0.003038359433,0.1842676581
15803.06579,0.13401652,-0.01643886209,-0.01210198224,0.1355622432
15813.05379,0.08100854991,0.01611200273,0.01153231725,0.08339649952
15823.04179,0.1293925784,0.05194432497,0.04084791765,0.1452900706
15833.029789999999,0.1358985925,0.04827227354,0.03347340927,0.148051035
15843.01879,0.114169389,0.03561597526,0.04391127393,0.1274023039
15853.00679,0.1304823714,0.02486294568,0.05059069455,0.1421380797
15862.99479,0.0901511284,-0.00354516685,0.05743427575,0.1069508775
15872.98279,-0.00222725926,-0.01027998984,0.07956116304,0.08025345811
15882.97079,-0.01507403059,-0.05091346085,0.09112929448,0.1054701626
15892.95979,-0.01079671925,-0.06093500376,0.039293143,0.07330480828
15902.94779,-0.01592967924,-0.01652423143,-0.00545018971,0.023590453
15912.935790000001,0.02270753408,0.02297897279,-0.05730841443,0.0657869262
15922.92379,0.05745799351,0.06822823584,-0.1099808639,0.1416061567
15932.91179,0.06911277339,0.04259696603,-0.13255404,0.1554401829
15942.89979,-0.01103011452,0.005351956487,-0.07486424088,0.07586146207
15952.888789999999,-0.06002583481,-0.02054185331,-0.02911489472,0.06980505481
15962.876789999998,-0.08143168733,-0.0154957062,-0.0126643382,0.08385476774
15972.86479,-0.07355508585,-0.005006386042,-0.02813285485,0.0789105321
15982.85279,-0.1532082329,0.01568983376,-0.005001269728,0.1540907077
15992.84079,-0.09544817587,0.02755734265,0.002886185646,0.09938858827
16002.82979,0.01648428764,0.0692655319,0.002440627813,0.07124185787
16012.81779,0.08564411284,0.06850422442,-0.01978858575,0.111442052
16022.80579,0.03216297515,0.04422541559,-0.04080786422,0.06823214885
16032.79379,0.007138353959,0.04762907982,-0.01503655359,0.05045377375
16042.78179,-0.01039538098,0.04307175994,0.04394942701,0.06240827337
16052.769789999998,-0.008403618336,0.02516056895,0.05873820484,0.06445038199
16062.75879,-0.007831906825,-0.02210305989,0.05486559391,0.0596667195
16072.74679,0.04716905013,-0.04798400581,0.03400331318,0.07538971688
16082.73479,0.07280814059,-0.06247983813,0.007511333227,0.09623500214
16092.72279,0.03484765112,-0.03950963616,-0.03156736314,0.06141554001
16102.71079,0.0351812165,-0.009664862752,-0.01773153529,0.04056519334
16112.69879,0.02406999014,0.009150307775,-0.02447556764,0.03552669375
16122.68779,0.004735477231,0.01720133901,-0.007827521414,0.01948283603
16132.675790000001,0.03552402779,0.01597166955,-0.001319716573,0.03897168756
16142.66379,0.02697675068,-0.01017649412,0.007826498151,0.02987574573
16152.65179,0.09269232832,-0.03459329724,-0.01249316096,0.09972283096
16162.63979,-0.07390241046,-0.03052188098,0.01828775167,0.08202190775
16172.62879,-0.04788029082,-0.02674048662,0.04808457792,0.07293629074
16182.61679,0.07672027504,-0.01682828665,-0.04365779713,0.08986208925
16192.604790000001,0.02685783293,0.006460588574,-0.0686392951,0.07398942645
16202.59279,0.00263645472,0.02504420936,-0.05263312697,0.05834731674
16212.58079,0.002601956148,0.03845889151,-0.03600934669,0.05274968778
16222.568790000001,0.06031264074,0.04328342915,-0.01576043889,0.0758911148
16232.55779,-0.001187624317,0.03676729202,-0.002905042917,0.03690099577
16242.545790000002,0.07237153631,0.03528034508,0.007678563595,0.0808783182
16252.533790000001,0.03890764704,0.0795852828,-0.008886159807,0.0890313769
16262.52179,-0.0556275592,0.06624252141,0.02789194956,0.09088706088
16272.50979,0.0798804941,0.04799803913,-0.01918763816,0.09514657407
16282.498790000001,0.08076419111,0.05469193161,-0.06564025819,0.1175700023
16292.48679,0.02690515883,0.02163528264,-0.03259296477,0.04747919943
16302.474790000002,-0.02961585492,-0.02363444567,0.01589214742,0.04108827368
16312.462790000001,-0.09321534349,-0.02658845901,0.09702986598,0.1371526205
16322.45079,0.04946516035,-0.02953662515,0.05009426594,0.07634559446
16332.438790000002,-0.02566763218,-0.04229174137,0.01062979952,0.05060050759
16342.427789999998,0.01032970944,-0.01423738539,0.06602924421,0.06833203591
16352.41579,0.04001907483,-0.0469589889,0.08680177018,0.1064951656
16362.403789999998,0.04709402304,-0.04395702839,0.08656349614,0.1079041529
16372.391789999998,-0.01719538216,-0.03384719253,0.04118310928,0.05601216028
16382.37979,-0.08472951695,-0.002859873176,-0.003375597596,0.08484494432
16392.36779,-0.1617819687,0.06053446949,-0.01798501208,0.1736700551
16402.356789999998,-0.1390406852,0.1113613915,-0.004904205948,0.1782069665
16412.34479,-0.04051323764,0.1044067132,-0.01854093611,0.1135158602
16422.33279,-0.0007051376626,0.04361672044,-0.03063648641,0.05330581413
16432.320789999998,-0.02051714882,0.0126948899,0.01297204792,0.0273932045
16442.30879,-0.05084976275,-0.003375597596,0.05083320782,0.07197991419
16452.29779,-0.1403783819,-0.05984566748,0.08019149289,0.1723898766
16462.285789999998,-0.1913416172,-0.0672564286,0.09401971936,0.2235503283
16472.27379,-0.1218251301,-0.03011082172,0.07914221004,0.1483627761
16482.26179,-0.06435968142,0.0148314625,0.02507329926,0.07064567367
16492.249789999998,0.02493567042,0.02118270814,-0.01662889659,0.03670170276
16502.23779,0.1357599221,-0.004914000034,-0.05685715556,0.14726724
16512.22679,0.1547918782,-0.05362189114,-0.06002736971,0.1744680999
16522.214789999998,0.1503668515,-0.06207111776,-0.02506876767,0.1645948262
16532.20279,0.05291211225,-0.0188713038,-0.01335854888,0.05774312563
16542.19079,0.01047967225,0.05140170336,0.001030279398,0.05246923017
16552.178789999998,-0.04758599315,0.09427933574,0.02107628882,0.1076904352
16562.16679,-0.0223068719,0.08732114911,0.01114669338,0.0908120498
16572.15579,0.07184590816,0.0520887512,-0.005230772942,0.08889563266
16582.14379,0.06194057867,0.02467174172,0.000125130415,0.06667342636
16592.13179,0.06638654564,0.0338138634,0.03125921488,0.08079411683
16602.11979,0.07162060764,0.03385654807,0.05174011096,0.09461932344
16612.10779,0.03715287935,0.02584527791,0.05061130598,0.06789564881
16622.09679,-0.02983011883,0.01638389826,0.0668009305,0.07497087719
16632.08479,-0.06578877747,-0.00911873281,0.1234277058,0.1401631659
16642.073379999998,-0.08682219889,-0.05515210748,0.1245199656,0.1615087336
16652.06137,-0.05283781607,-0.05780674338,0.09529017314,0.1233437128
16662.04938,-0.04008876633,-0.01319482684,0.04181446239,0.0594109578
16672.037379999998,-0.02056155112,0.01420873404,0.01810765743,0.03086345355
16682.02638,-0.0269758736,0.0008577865362,-0.009789408445,0.02871003434
16692.01437,-0.03331926204,0.07368719637,0.05166424334,0.09596442139
16702.00237,-0.03068034053,0.09907112896,0.04448868647,0.1128521826
16711.99038,-0.108846029,0.1042377287,0.0276680012,0.1532268919
16721.97838,-0.2116500204,0.07339717448,0.07691076636,0.2368504641
16731.96637,-0.014948553,0.01042149246,0.05723430097,0.06006523079
16741.95537,0.02568287149,-0.04875291467,0.01401796862,0.05685912434
16751.94337,0.1019912285,-0.1031630105,-0.02355857804,0.1469687858
16761.93138,0.03943749614,-0.1145615727,0.01001964256,0.1215732835
16771.91937,0.04128200032,-0.07327789128,0.06778194711,0.1080196522
16781.90737,0.08541038867,0.01550330758,0.06773765445,0.1101075695
16791.89637,0.11260038,0.09477284074,-0.01719154492,0.1481765371
16801.88438,0.2053352834,0.1744563568,-0.09833671868,0.286823481
16811.87238,0.2929233213,0.2059325033,-0.1952940792,0.4078627777
16821.86037,0.2227907204,0.1573971051,-0.2233123286,0.3525307787
16831.84838,-0.02401469741,0.09644105136,-0.1696423441,0.1966115637
16841.83638,-0.03971936848,0.006502688527,-0.1184164958,0.1250694993
16851.825380000002,-0.03245559175,-0.07458415926,-0.10156789,0.1301237816
16861.81337,-0.08052343201,-0.169062885,-0.007122639567,0.187395342
16871.80137,-0.05766412614,-0.1399899441,0.03985593751,0.156559355
16881.789380000002,0.03373467017,-0.05121634662,0.05520897165,0.08251771133
16891.77737,0.06871013777,-0.04186372519,-0.04945034131,0.09444040859
16901.76537,0.009227765109,0.009009974599,-0.07415029585,0.07526352149
16911.754370000002,-0.08327142237,0.08605756581,0.02019394398,0.1214406431
16921.74238,-0.09418989161,0.07116821587,0.03702223063,0.1237226584
16931.73038,-0.2353369083,0.0113769275,-0.008807076216,0.2357762912
16941.71837,-0.2932122286,0.1803082502,0.1525759296,0.3765154583
16951.70637,-0.1801548704,0.07901108623,-0.04449087918,0.2016877969
16961.69537,-0.1517524589,-0.1365997285,-0.06972029909,0.2157526702
16971.683380000002,-0.109072901,-0.05656654894,0.01952195272,0.1244097216
16981.671380000003,0.01400967289,-0.02149027169,-0.00373929441,0.02592460288
16991.65937,0.03978873108,0.01515364408,-0.08920819178,0.09884774924
17001.647380000002,0.01429671636,0.01295275211,-0.05126502469,0.05477474457
17011.63538,-0.3555282168,0.07212365091,0.04196605146,0.3651893802
17021.624379999997,-0.1947652533,0.08538455129,0.210066631,0.298918074
17031.612370000003,0.1370367896,-0.108401531,-0.2222715242,0.2827270841
17041.60037,-0.1376509665,-0.1814525503,-0.0147330831,0.2282320756
17051.588379999997,0.03363956155,-0.1533344597,0.09900198564,0.1855922137
17061.576370000002,0.2061170926,-0.1233066684,-0.006752510816,0.2402798093
17071.56437,0.3963386026,0.03064174891,0.07661650524,0.4048373668
17081.55337,0.4575562461,0.0822533673,-0.04489667594,0.4670535797
17091.54138,0.04157059696,0.06677169442,0.01313883975,0.07974460996
17101.52938,-0.03279790968,0.1509037721,0.1290388401,0.2012428224
17111.51737,-0.1145381473,0.1804064834,0.09170071363,0.2325392597
17121.50538,-0.2318251071,0.09794904828,0.02480578914,0.2528877687
17131.49437,-0.2232021086,0.01523433566,-0.07819715381,0.2369937998
17141.482379999998,-0.2038801306,0.0151296705,-0.1276184052,0.2410030538
17151.47037,-0.1633876506,0.003135277033,-0.1102083206,0.1971071492
17161.458369999997,-0.1178443823,-0.003524701595,-0.04305187941,0.1255116978
17171.446379999998,-0.07196404019,-0.03536162138,0.01707079992,0.0819797509
17181.434370000003,0.04752510902,-0.06785927653,0.05564853609,0.0998011872
17191.42338,0.03461776419,-0.06924974442,0.06464403883,0.100860143
17201.411369999998,-0.0882998451,-0.03851268589,0.1243707155,0.1573154935
17211.39937,-0.08565407138,-0.02005185664,0.1620532429,0.1843907548
17221.38738,-0.0935516132,-0.01412570357,0.1500630887,0.177398902
17231.375369999998,-0.1324018479,-0.0183345294,0.0967978777,0.1650340372
17241.36337,-0.1425309248,-0.01950104892,0.04187249601,0.1498287734
17251.35237,-0.03497897593,-0.01080273092,0.02550862446,0.04461970052
17261.34038,0.06784038272,0.02321052253,0.001918325275,0.07172674435
17271.32838,0.07420434605,0.03674682677,-0.02258618608,0.08582977369
17281.31637,0.07831921443,0.04533112407,0.02285252675,0.09333299598
17291.30438,0.1852246987,0.0711880964,0.02825725436,0.2004355421
17301.29337,0.261504112,0.03630419254,0.003831095695,0.2640399066
17311.28138,0.2736014165,0.01898123145,0.005627360344,0.2743167684
17321.269369999998,0.1510939163,0.03218073606,0.06547712088,0.1677862469
17331.25737,-0.01043205399,-0.01108105838,0.03834604025,0.04125574394
17341.24538,-0.02428560622,0.002096811533,0.05349383712,0.05878586478
17351.233369999998,0.05152597496,0.02548742831,0.0165632616,0.0598237138
17361.22238,0.1158440681,0.04555624187,0.003176646084,0.1245203211
17371.21037,0.1232009617,0.04275717974,-0.02596339166,0.1329689854
17381.19838,0.1712397121,0.0307148391,-0.01927183807,0.1750366935
17391.18638,0.1889206141,-0.0001286387444,-0.01301166281,0.1893682084
17401.17437,0.2254822669,0.01248439014,-0.02435482264,0.2271371173
17411.16238,0.08253259012,0.02737140119,-0.04189515397,0.09651956259
17421.15137,-0.1167833502,0.006617878675,-0.03773924544,0.122908087
17431.13938,-0.1491239893,-0.005972930789,-0.04887234405,0.157041861
17441.127370000002,-0.2372817653,-0.006131975055,-0.03432096317,0.2398294515
17451.11537,-0.2116873513,-0.03283971727,0.005415544957,0.2142879134
17461.10338,-0.09982525533,-0.02937758088,0.007845793962,0.1043536312
17471.092370000002,0.02698413279,-0.05186246395,-0.02897865459,0.06525044836
17481.080380000003,0.1286454869,-0.07441166639,-0.06609166324,0.1626495169
17491.06837,0.2210194709,-0.05262377143,-0.07913285449,0.2405844477
17501.056370000002,0.1125288612,-0.003915295601,-0.03003670827,0.1165344498
17511.044380000003,0.1192064181,0.04245955646,0.04942344412,0.1358516134
17521.03237,0.1610483989,0.08491268098,0.05485901579,0.1901479997
17531.02138,0.131567505,0.09612413228,0.01663167402,0.1637878804
17541.00937,0.1277782169,0.07528933346,-0.01325052157,0.1489004123
17550.997379999997,0.1317659084,0.04410086989,0.01419864759,0.1396737016
17560.985380000002,0.1406294833,0.02038631737,0.0321864371,0.1456990743
17570.97337,0.1692051186,0.06050289452,0.0327321285,0.182653674
17580.96237,0.1753424658,0.1056404757,0.03091481388,0.2070280564
17590.950370000002,0.1253926991,0.1132629061,0.04700708225,0.1753895113
17600.93838,0.05407037258,0.08461798131,0.06470543459,0.1194596217
17610.92637,-0.01805397268,0.01413505912,0.08223684892,0.08537356234
17620.914370000002,-0.07513299353,-0.06378786027,0.1057761312,0.1445767884
17630.90238,-0.1337922975,-0.1093201286,0.09845497862,0.1988583722
17640.89138,-0.07818849262,-0.1242299438,0.07003444076,0.162638686
17650.87842,-0.1842565095,-0.0713804698,0.04483396456,0.2026221042
17660.866420000002,-0.2537046755,-0.04497444391,0.05331491232,0.2631183058
17670.85442,-0.2821549428,-0.01549687564,0.02218784451,0.2834499344
17680.84242,-0.1964021448,0.06635654211,-0.003842790127,0.2073445447
17690.830420000002,-0.146522088,0.08999508083,-0.008933522254,0.1721849141
17700.81942,-0.1248136055,0.104930039,0.0001898883283,0.1630606797
17710.807419999997,-0.1859328697,0.1015667206,0.04489316761,0.2165692205
17720.795420000002,-0.08236415377,0.07589802861,0.07717608377,0.136016589
17730.783420000003,-0.0422151063,0.06705879271,0.05432063341,0.09607147388
17740.77142,-0.01890094187,0.0461345315,0.05147406265,0.07166044743
17750.76042,0.004036278147,0.04513699651,0.07272372141,0.0856876867
17760.74842,-0.07313479895,0.02702349186,0.08706913412,0.1168760114
17770.736419999997,-0.03998099484,0.002525997162,0.1369691263,0.1427074006
17780.72442,0.08286838476,-0.02641011894,0.09971359178,0.1323157737
17790.71242,-0.1210569156,-0.05996612012,0.07683051333,0.1554144143
17800.700419999997,0.08525390256,-0.1098048627,0.08656744301,0.1637658633
17810.68942,0.1458811966,-0.1038746166,0.01092596099,0.1794174911
17820.67742,0.06218702054,-0.03937456548,0.004773082137,0.07375882485
17830.665419999998,0.01208900873,0.0581189847,0.01610907912,0.06150986055
17840.65342,0.02964019395,0.1112274903,0.01788253963,0.1164898318
