Time (ms),Linear Acceleration x (m/s^2),Linear Acceleration y (m/s^2),Linear Acceleration z (m/s^2),Absolute acceleration (m/s^2)
3.3142501490000003,0.2265555233,0.08243141502,-0.02518103421,0.2423972521
13.3022503,0.2605623083,0.1270713982,0.06560459018,0.2972268813
23.29024998,0.01059237733,0.05386104226,0.07686223447,0.09445111656
33.27825014,0.01110795557,0.004301504195,0.03658076584,0.03847131457
43.26625029,0.0906356433,-0.03488916636,0.00383284986,0.09719446746
53.25425044,0.01058287561,-0.1087050015,0.03571479321,0.1149100564
63.24125035,0.01702387601,-0.1326902801,0.1182236838,0.1785311239
73.22925003,0.09587409072,-0.145346286,0.1173325682,0.2099626531
83.21725018,0.07196913823,-0.1175977394,0.08508985162,0.1620156413
93.20525033,0.03594758548,-0.1044225007,0.08348479092,0.1384413156
103.19325,0.00227485925,-0.07405264735,-0.1048212808,0.1283607046
113.1812502,0.03510639042,-0.03700176537,-0.3964166629,0.3996845756
123.1692503,0.08491187699,0.06229068071,-0.2773234981,0.2966453748
133.15725,-0.03659574933,0.1411213803,-0.1265869564,0.1930770581
143.1452502,-0.2185858049,0.1522793296,0.09360632122,0.282366591
153.1332503,-0.2844849486,0.04622107029,0.3780914891,0.4754169196
163.12025020000002,-0.1707617205,-0.0633180365,0.1301145816,0.2238270387
173.1082504,-0.02244117513,-0.1019742715,0.02314795732,0.1069494569
183.0962501,0.007045675591,-0.09093735963,0.02497111917,0.09456638786
193.0842502,0.01864004642,-0.07950868428,0.00983209312,0.08225419297
203.07225039999997,0.04393173918,-0.05448903322,-0.007901927233,0.07043786555
213.06025,0.07797400944,-0.04901106924,0.0480921793,0.1038984541
223.04825019999998,0.1038920121,-0.06428311944,0.05127306461,0.132494516
233.0362503,0.07263338193,-0.06984674513,0.06249679506,0.1185749778
243.02425,-0.06428092673,-0.04074661463,0.1327195162,0.1529927911
253.0122502,-0.1047002435,-0.02719306111,0.05534740448,0.1215110643
262.99925010000004,-0.06429876074,-4.093050957e-05,-0.03319230437,0.07236063417
272.98725019999995,0.01544286199,-0.04727239966,-0.02367011368,0.05507663786
282.9752504,-0.02523314752,-0.06273857743,0.1435427123,0.1586737253
292.96325010000004,-0.08891020305,-0.05605316341,0.1888311517,0.216111511
302.9512502,-0.08646102369,-0.04310011894,0.1996221882,0.2217704825
312.9392504,-0.03795778513,-0.03911787271,0.1471925443,0.1569606528
322.9272501,0.002374773547,-0.04504344106,0.06211964965,0.07676849617
332.9152502,0.07896518558,-0.06496168882,0.01373803318,0.1031709993
342.90325040000005,0.06576685041,-0.04945984304,0.02488282621,0.0859692371
352.89125,0.01052454963,-0.0813692683,0.02337073624,0.08531069851
362.8792502,0.02106349804,-0.103822284,0.01711889327,0.1073116681
372.8662501,0.03749541655,-0.07010109901,0.05570993185,0.09707557289
382.8542503,0.04932206802,-0.08043137491,0.06113848686,0.1124268075
392.84225039999995,0.01869464479,-0.1119352958,0.09551368296,0.1483302525
402.8302501,-0.0798052112,-0.1341953534,0.1167846841,0.1949767346
412.8182502,-0.0886694805,-0.1653276837,0.03579139173,0.1909883334
422.8062504,0.0169121211,-0.2171550643,0.02928987265,0.2197731523
432.7942501,0.1725663905,-0.309427928,0.09301341355,0.3663008284
442.7822502,0.3203622213,-0.2234338045,0.07084252596,0.3969550117
452.7702504,0.5659881826,0.2719811895,0.2303639245,0.6688676462
462.7582501,1.091134003,1.802401301,0.06464681625,2.107938109
472.74525,1.023215084,0.4432873589,0.9617810208,1.472581245
482.7332501,0.5541037899,-0.5608251643,0.4167871928,0.8917776848
492.7212503,-0.9134879896,-0.1054367003,-0.589249649,1.092150335
502.70925040000003,-1.296730145,0.09683339953,-0.3300232834,1.341566675
512.6972501,-1.318567303,-0.7136938933,0.4085145521,1.553982897
522.6852503,-1.516332415,-1.112481602,0.03339286387,1.880955712
532.6732504,-0.996520206,-1.009231176,-0.3105789524,1.45191576
542.6612501,-0.08119640999,-0.80895293,0.1955993038,0.8362157542
552.6492503,0.350895212,0.2947639883,0.2864094865,0.5404106333
562.6372504,-0.4684973368,0.8528646424,-0.4495637602,1.071902714
572.6242503,-0.2494360802,0.5539774901,-0.9458584678,1.124169764
582.61225,0.1660010637,0.4127549529,-1.04370402,1.134566475
592.6002502,0.5522690798,0.3458566663,-0.5871639472,0.8771427883
602.5882502999999,0.7634535523,0.3477704599,-0.5980000073,1.030247363
612.5762500000001,0.643058578,0.01570123583,-0.6745780671,0.9321085946
622.5642501000001,0.06536989756,-0.3516369313,-0.421163249,0.5525398061
632.5522503,-0.2440477978,-0.5990276554,0.396676864,0.7587792789
642.5402504,-0.03250949576,-0.686712209,1.056338684,1.260349928
652.5282501,0.3189439061,-0.1753708613,0.7659250242,0.8480101985
662.5162503,-0.03556693174,1.091459692,0.07541621804,1.094640065
672.5042503999999,-0.09625569463,1.605380393,-0.4482598311,1.669565285
682.4912503,0.5300564577,1.065445576,0.4209673673,1.262278752
692.47925,0.7809224014,0.8996471916,-0.1258426058,1.197932063
702.4672502,0.4829260723,0.1153367673,-0.5991636032,0.7781498471
712.4552503,0.1751176769,-0.3968189514,-0.2742852849,0.5131899243
722.44325,0.09464931831,-0.5984810869,-0.6008774221,0.8533415385
732.4312502,-0.2203043016,-0.377437478,-0.8874371821,0.989210689
742.4192503,-0.4265437838,-0.2518838708,-0.5737568665,0.7580118902
752.40725,-0.2414060258,-0.2004280807,1.497548527,1.530065318
762.3952501,-0.9559797788,0.459227892,-0.3929726529,1.131023917
772.3832503,-0.5075587108,0.8273421308,0.04656079352,0.971740065
782.3702502,-0.671130768,1.00843844,0.05529127121,1.212609467
792.3577501999999,-0.5653664044,1.06961391,-0.2636375052,1.238231732
802.3457504,-0.6431470902,1.334226438,-0.5632342172,1.584623347
812.3337501,-0.5379090491,1.262035398,-0.6674760389,1.525648634
822.3217502,0.06377287678,0.3088366283,-0.3457043463,0.4679300566
832.3097504,0.4299080524,-0.5159299502,-0.02849055827,0.6721728639
842.2977500999999,0.5194667847,-0.9726450013,-0.1029150885,1.107463568
852.2857501999999,0.6377278177,-1.131914531,-0.473277728,1.382721622
862.2737503999999,0.7891142043,-1.173641431,-0.7926906538,1.62126306
872.2617499999999,0.8283415662,-1.119766063,-0.8859262615,1.650724425
882.2487504,0.8693714784,-0.995905956,-0.9199161261,1.610553048
892.2367501,1.011379735,-0.274235145,-0.8665614527,1.359787717
902.2247503000001,1.369826919,0.7864681931,-0.45938182,1.644989259
912.2127504,1.174261529,0.8196702915,-0.3030138248,1.46375097
922.2007501,0.7226953894,0.6328888813,0.04516681731,0.961705258
932.1887502000001,0.4097413711,0.7481040265,0.8094055045,1.175876225
942.1767504000001,0.1449319377,0.7449544238,0.9805412275,1.239928812
952.1647501,0.1251590663,0.9467347462,0.9132900614,1.321389499
962.1527502,0.1814722481,1.12726943,0.8511329895,1.424112324
972.1407504,0.2340235323,1.204372789,0.9627194989,1.559522254
982.1277503,0.3422616519,1.283324526,0.9859662741,1.654144604
992.1157499999999,0.3990999136,1.319995777,0.8343959194,1.611795937
1002.1037500000001,0.3455056141,1.340540262,0.6252918863,1.519016875
1012.0917499999999,0.3049305421,1.384988603,0.41014651,1.476277828
1022.0797500000001,0.3027368495,1.454415956,0.1894667441,1.497622456
1032.06775,0.5366881139,1.522376974,0.1302443898,1.619453421
1042.05575,1.069156438,1.474856945,0.3663760078,1.858098457
1052.04375,1.133916179,1.005015553,1.066115229,1.852680178
1062.03175,0.6303523591,0.2395576479,1.968498479,2.080797497
1072.01975,0.8308052174,0.145167215,1.684800346,1.884108021
1082.00675,1.055149799,0.2040140319,0.9607864094,1.441552409
1091.99475,0.8739274827,0.09391037643,0.4111843908,0.9703818872
1101.98275,0.6188834842,-0.0747344327,0.03156677842,0.6241782309
1111.97075,0.4051250674,-0.11338599,-0.2412865233,0.4849761739
1121.9587499999998,0.2773488422,-0.09026478365,-0.3247350615,0.4364893717
1131.94675,0.2930222123,-0.05494175389,-0.1887931448,0.3528788245
1141.9347500000001,0.5060450128,-0.08431977332,-0.2056828272,0.5527176536
1151.92275,0.4295850668,-0.2714432457,-0.3136516643,0.59716173
1161.91075,0.4410488255,-0.4854653719,-0.3088961238,0.7249948338
1171.89875,0.9535767925,-0.5282550037,-0.4098769534,1.164629196
1181.88575,1.461872764,-0.6195563525,-0.5484202963,1.679787747
1191.87375,1.907347566,-0.7357680094,-0.7082486737,2.16354928
1201.86175,2.294650028,-0.7601289716,-0.9852166611,2.610338421
1211.84975,2.415120797,-0.7691129261,-0.977852093,2.716714536
1221.83775,2.401834315,-0.7572455634,-0.4829893684,2.564275268
1231.82575,2.694614489,-0.6142646223,-0.1140318149,2.766093188
1241.81375,2.802378674,-0.6321345904,-0.2026001751,2.87992486
1251.80175,2.259357989,-0.914631705,-0.03601475537,2.437733935
1261.78975,1.484767391,-1.16791116,0.2837074882,1.91024622
1271.77775,0.8958576111,-1.180010511,0.4017247653,1.535046726
1281.76475,0.6148798956,-1.145194289,0.3975340658,1.359257363
1291.7527499999999,0.470186305,-1.142560557,0.2003560138,1.25166382
1301.74075,0.480190891,-1.245032718,-0.2638368952,1.360257207
1311.7287500000002,0.5769916923,-1.312044003,-0.7916106731,1.637383991
1321.71675,0.6874343401,-1.279796608,-1.126240978,1.838168673
1331.70475,0.6117753164,-1.338007979,-1.301907708,1.964560528
1341.69275,0.4887607165,-1.374611549,-1.343489597,1.98328219
1351.68075,0.3390063608,-1.330433934,-1.207207958,1.828204261
1361.66875,0.1296975289,-1.261614837,-0.9548491466,1.587523335
1371.65675,-0.07787453368,-1.232098677,-0.6291598195,1.385631146
1381.64375,-0.2184794587,-1.278708003,-0.2727901518,1.32561001
1391.63175,-0.3341821155,-1.435207122,0.02339237094,1.473785728
1401.61975,-0.3325636062,-1.624257252,0.2967567194,1.684302444
1411.60775,-0.3271220411,-1.657091268,0.5615484649,1.779971061
1421.59575,-0.399261041,-1.638736566,0.7135643774,1.831404115
1431.58375,-0.5799812275,-1.572154029,0.7875895429,1.851578732
1441.57175,-0.9088289282,-1.485849126,0.8878581816,1.954996111
1451.55975,-1.156345952,-1.408016838,0.9075100887,2.035490589
1461.54775,-1.261466903,-1.311759536,0.7749414307,1.978015684
1471.53575,-1.221353542,-1.195053935,0.5986034399,1.810575726
1481.52275,-1.172146298,-1.109516771,0.4692156672,1.68080866
1491.51075,-1.050641157,-1.019056545,0.4141582847,1.5211345
1501.4987500000002,-0.8991076398,-0.919838212,0.3758484972,1.340059318
1511.48675,-0.7741234052,-0.864103868,0.3774599898,1.220007617
1521.47475,-0.6433211911,-0.7846314365,0.3690148562,1.079666898
1531.46275,-0.5228147542,-0.6483138362,0.3852923352,0.9176580414
1541.4507500000002,-0.5301389766,-0.5308330411,0.5400581932,0.9243883946
1551.43875,-0.5815775174,-0.4456728767,0.7469174802,1.046299405
1561.42675,-0.4980482876,-0.3190496676,0.8322827357,1.021048157
1571.41475,-0.246465987,-0.2397478285,0.8265512949,0.8952159221
1581.40175,0.09670417607,-0.2384058926,0.7721599102,0.8138918811
1591.38975,0.4001366615,-0.2054948393,0.7909645557,0.9099243954
1601.3777499999999,0.581882742,-0.2509730208,0.8916863537,1.093928488
1611.36575,0.6643381307,-0.3769549365,1.024055622,1.27754847
1621.35375,0.7066558921,-0.4743422136,1.035974586,1.340748458
1631.34175,0.752358022,-0.4985308291,0.8596108675,1.246397378
1641.3297499999999,0.692310918,-0.4613587636,0.616594153,1.035535932
1651.31775,0.5924004212,-0.4266051795,0.3389204067,0.8048585468
1661.30575,0.4648185611,-0.3828385511,0.1202655315,0.6140728369
1671.29375,0.4024030423,-0.2935142921,0.02932846427,0.4989378788
1681.28075,0.3842801821,-0.1447700429,0.02157447159,0.4112117235
1691.2687500000002,0.2878885397,-0.09598767288,0.06935207069,0.3112927149
1701.25675,0.03682576418,-0.09686000437,0.01811525881,0.1051958172
1711.24475,-0.1241305411,-0.04914233923,-0.2028019041,0.242800274
1721.23275,-0.1258405593,0.006056034341,-0.5842479408,0.5976773195
1731.2207500000002,0.07396493912,0.03128728151,-0.9662915629,0.9696231695
1741.20875,0.4138004351,0.006131244153,-1.198756977,1.268182432
1751.19675,0.6745766053,0.04166411586,-1.337521929,1.498584134
1761.18475,0.9211636296,0.1383786707,-1.434928356,1.710763127
1771.1727500000002,1.05284965,0.1089792359,-1.527413181,1.858321793
1781.15975,1.110615756,0.0978177052,-1.629555852,1.974458897
1791.1482919999999,1.092968566,0.07899102297,-1.649047546,1.979943857
1801.1362920000001,1.013388546,-0.1050028369,-1.086977509,1.489799331
1811.124292,1.048858926,-0.01856081665,-0.09235969484,1.053081128
1821.112292,0.8079106638,0.06523822557,-0.2888939685,0.8604855558
1831.1002919999999,0.5471040881,-0.4585760736,-0.1237072027,0.7245125054
1841.088292,0.4164790446,-0.4991545808,0.05020536304,0.6520204511
1851.076292,0.5845075572,-0.2720545721,0.1837844199,0.6704024818
1861.064292,0.6595919457,-0.2074206197,0.2449316776,0.7335368941
1871.0522919999999,0.4508925399,-0.1025389755,0.2656179571,0.533264684
1881.0392920000002,0.09284618318,0.0004223151505,0.2639322048,0.2797870634
1891.027292,-0.2175696319,0.09044736296,0.2776725769,0.3641693702
1901.015292,-0.3919628388,0.2217442515,0.2068312204,0.4955648634
1911.0032919999999,-0.4648571527,0.2698010552,-0.02260416627,0.5379551377
1920.9912920000002,-0.4848721719,0.3571223505,-0.2740829712,0.6616334872
1930.979292,-0.5783153558,0.5005764775,-0.3332316506,0.8343073735
1940.967292,-0.7806956756,0.6472576828,-0.2021861923,1.034073258
1950.9552919999999,-1.032442868,0.7710119556,0.00835274756,1.288591277
1960.9432920000002,-1.33737224,0.9164860032,0.2595830458,1.641917922
1970.931292,-1.444372194,1.103663124,0.3579221034,1.852671465
1980.9182919999998,-1.399948558,1.194457811,0.3489513052,1.873059647
1990.9062920000001,-1.230706748,1.201707409,0.303555277,1.746678448
2000.894292,-0.8899836445,1.191667228,0.2108856797,1.502203195
2010.8822919999998,-0.6585169351,1.08163827,0.1693341959,1.2775993
2020.870292,-0.6096523386,0.9963053209,0.2304832077,1.190555658
2030.8582920000001,-0.7829240495,0.9344781782,0.4344773591,1.294214089
2040.846292,-0.9500766492,0.8146190281,0.5485986364,1.366459024
2050.834292,-0.8724776655,0.7773746033,0.473718608,1.260927385
2060.8222920000003,-0.5897840846,0.6714973153,0.408264876,0.9825650716
2070.809292,-0.1229681146,0.4705304137,0.3495722795,0.5989330563
2080.797292,0.2370250726,0.3264516579,0.5168780762,0.6556786679
2090.785292,0.4185080284,0.1963468704,0.9775813669,1.081372458
2100.773292,0.6299620575,0.06365366668,1.477542863,1.60749398
2110.7612919999997,0.7935636431,-0.0119464463,2.001225929,2.152856519
2120.749292,0.69177122,-0.1150816825,2.404227726,2.504416534
2130.7372920000003,0.4994130278,-0.2350153846,2.640807241,2.697871103
2140.725292,0.2661488843,-0.2538261697,2.739736283,2.764311461
2150.713292,-0.110919342,-0.2913290414,2.744227529,2.761876254
2160.701292,-0.4619826615,-0.3036219352,2.781088961,2.835501732
2170.688292,-0.7294880998,-0.3619590211,2.782077141,2.898813626
2180.6762919999996,-0.8784757394,-0.3870374367,2.810764166,2.9701705
2190.664292,-0.9349943411,-0.4041873202,2.957404733,3.127910574
2200.652292,-1.0435479,-0.5261008894,3.243616583,3.447727209
2210.640292,-1.058529636,-0.6002538165,3.503715938,3.709018066
2220.628292,-1.032588463,-0.5511082613,3.659895068,3.842498037
2230.616292,-1.090143192,-0.3152850839,3.739128349,3.907543688
2240.604292,-1.19478204,0.06512190253,3.624817622,3.817204183
2250.592292,-1.367409972,0.4713940474,3.356477786,3.654855059
2260.580292,-1.55004366,0.9241661748,2.856473604,3.378780833
2270.567292,-1.773216094,1.310089132,2.257687439,3.155595256
2280.555292,-1.817078397,1.549658621,1.593532326,2.870986071
2290.5432920000003,-1.667638183,1.689937417,0.8496124211,2.521655577
2300.531292,-1.418863131,1.725549592,0.08941620648,2.235774862
2310.519292,-1.050201446,1.678780053,-0.6764553156,2.092562386
2320.507292,-0.6295626926,1.581182714,-1.209939777,2.088167192
2330.495292,-0.2787531424,1.415277326,-1.451218114,2.046154256
2340.483292,-0.003028857708,1.098945006,-1.406807926,1.785160452
2350.4712919999997,0.1719853234,0.689879061,-1.15961513,1.360227672
2360.4582920000003,0.3181639606,0.3269426778,-0.779965066,0.903584708
2370.446292,0.468109374,0.03985403717,-0.3596610653,0.5916678226
2380.434292,0.5106367582,-0.205314745,0.03620800585,0.5515569445
2390.4222919999997,0.5683031684,-0.2836460924,0.3264251992,0.7141267448
2400.410292,0.6018907446,-0.1772092259,0.3356325173,0.711565011
2410.398292,0.5052514726,-0.07419795066,-0.001793341041,0.5106736752
2420.3862919999997,0.3105549788,0.1103428066,-0.4279699928,0.540165016
2430.3742920000004,0.03788411021,0.3309468511,-0.7808424407,0.8489263462
2440.3622920000003,-0.2110149032,0.5764875162,-0.9775509614,1.154327089
2450.350292,-0.4954953933,0.7769920492,-0.9862925488,1.349816773
2460.337292,-0.6993872184,0.9956711903,-0.9099401915,1.519373145
2470.325292,-0.816025722,1.132933993,-0.7353902793,1.578048248
2480.313292,-1.042816413,1.209696532,-0.5023038912,1.674258335
2490.3012919999996,-1.324389668,1.265396524,-0.4518389118,1.88663583
2500.2892920000004,-1.61080851,1.168482141,-0.5641446286,2.068408502
2510.277292,-1.595636739,1.079296022,-0.6701207346,2.03960739
2520.265292,-1.340274214,0.9178681388,-0.7244787902,1.778675464
2530.253292,-0.8257513958,0.6053385553,-0.6934435236,1.236593731
2540.241292,-0.2900476241,0.3215845817,-0.5986589885,0.7388753968
2550.229292,0.1077834803,0.03064467251,-0.5641861439,0.5752063799
2560.2162919999996,0.3619543433,-0.174476822,-0.4710657263,0.6191575135
2570.204292,0.3731617016,-0.1633355373,-0.2762476104,0.4921797391
2580.192292,0.2529072797,-0.175942719,-0.1771776509,0.3554009742
2590.180292,0.1517814392,-0.3022987103,-0.05917733073,0.3434007455
2600.1682920000003,0.3216471469,-0.3627437174,0.1733605886,0.5148725914
2610.156292,0.5491903746,-0.3987479478,0.4631561977,0.821659088
2620.144292,0.6101171923,-0.4905024558,0.760580669,1.091475424
2630.132292,0.5887134594,-0.4121942049,1.16976005,1.372889716
2640.120292,0.4300878543,-0.3155865079,1.608899394,1.695030284
2650.107292,0.2138221514,-0.2680743724,1.976553018,2.006077171
2660.095292,0.03962014854,-0.1940035987,2.28419199,2.292758208
2670.0832920000003,-0.07318842888,-0.161084944,2.465425855,2.471766484
2680.071292,-0.1199912971,-0.1371452737,2.533050073,2.539596309
2690.059292,-0.1059357601,-0.05817394853,2.474312161,2.47726205
2700.0472919999997,-0.03107385814,0.04558840156,2.274751953,2.275420914
2710.035292,0.03347881794,0.1709573829,1.946502423,1.954282206
2720.023292,0.09245968223,0.3113075155,1.637602791,1.669492157
2730.011292,0.1730033237,0.3905232543,1.323165553,1.390397656
2739.999292,0.2349972582,0.4344978243,0.9703735042,1.088869509
2749.986292,0.3054509443,0.4966502184,0.6292010424,0.857820302
2759.974292,0.3334099907,0.5055952889,0.349062987,0.6990234523
2769.962292,0.2926104587,0.4778461576,0.1913989565,0.5921075843
2779.950292,0.3404798591,0.528787685,0.1641301739,0.6499858955
2789.9384999999997,0.4866210741,0.6030777293,0.2282346609,0.8078328279
2799.9265,0.7172656649,0.6725742263,0.2668885571,1.018850149
2809.9145000000003,0.9303972602,0.7476097906,0.2349235833,1.216449157
2819.9025,0.9517939764,0.8084851527,0.2488417107,1.273374341
2829.8905,0.8269793111,0.7815400136,0.2047127742,1.156117163
2839.8775,0.7054782629,0.6766561675,0.04485340655,0.9785576
2849.8655,0.6503781956,0.4354275316,-0.1596900907,0.798805269
2859.8534999999997,0.7033405209,0.1699119008,-0.4479899821,0.851030532
2869.8415,0.7064068007,0.03790165186,-0.8035334381,1.070566714
2879.8295,0.5280193609,-0.1721145469,-1.224054955,1.344149693
2889.8175,0.1729489446,-0.4278436929,-1.730132932,1.79062043
2899.8055,-0.1259911251,-0.6422084659,-2.011821376,2.115592288
2909.7935,-0.2951808947,-0.8320277971,-1.967778686,2.156746386
2919.7815,-0.3543933088,-1.047024069,-1.633399812,1.972270003
2929.7685,-0.3692347115,-1.226220179,-1.156930674,1.725815397
2939.7565,-0.2048840976,-1.326956595,-0.7616091943,1.543644993
2949.7445,-0.03706199169,-1.357539872,-0.446472922,1.429554534
2959.7325,0.03176909208,-1.344109402,-0.2724703091,1.371816106
2969.7205000000004,0.02908755898,-1.291419557,-0.1889317238,1.305490619
2979.7085,-0.06466611207,-1.254807801,-0.1811312458,1.269461639
2989.6965,-0.1438783425,-1.081923761,-0.2136657384,1.112165927
2999.6845,-0.1645634526,-0.8858046395,-0.2950320831,0.9480374039
3009.6725,-0.2021920395,-0.7070383,-0.4493971145,0.8618251244
3019.6605,-0.2109944379,-0.505340935,-0.5959599137,0.8093555042
3029.6475,-0.2297341794,-0.3718513405,-0.8043538025,0.9154431999
3039.6355000000003,-0.2717511016,-0.2877087379,-1.077335743,1.147727007
3049.6235,-0.3222897559,-0.1431310683,-1.200146568,1.250883277
3059.6115,-0.3387531763,-0.02396013558,-1.16631487,1.214750254
3069.5995,-0.2667055392,0.07714816332,-1.099067797,1.133593272
3079.5875,-0.1630537015,0.2170878214,-0.9502637601,0.9882888472
3089.5755,-0.2380348867,0.3101287168,-0.7377294579,0.8349162721
3099.5634999999997,-0.3181779939,0.3227259582,-0.6160094315,0.7647593737
3109.5514999999996,-0.3171138006,0.3804923558,-0.6172829551,0.791437832
3119.5385,-0.4605881006,0.3869552833,-0.6563844556,0.8903461929
3129.5265,-0.6571159422,0.2977033836,-0.7421432287,1.034990453
3139.5145,-0.7090988588,0.2980127013,-0.7523954442,1.075979399
3149.5025,-0.7376584142,0.288388769,-0.6849653533,1.047132061
3159.4905,-0.6531111842,0.1723039967,-0.6133071408,0.9123532951
3169.4784999999997,-0.3931562555,0.06672199309,-0.5225662476,0.6573424897
3179.4665,-0.04971828997,0.004156785607,-0.3587921691,0.3622444034
3189.4545000000003,0.1916688055,-0.1066134524,-0.1829658097,0.2856218597
3199.4425,0.3493278658,-0.1949280435,-0.002616629004,0.4000421812
3209.4305,0.5026903921,-0.2380869269,0.2582604057,0.6132548021
3219.4175,0.6334598619,-0.2431131935,0.536345796,0.8648943487
3229.4055,0.6960566443,-0.2022855949,0.8476404476,1.115306524
3239.3934999999997,0.7049081594,-0.1254052341,1.079891853,1.295680671
3249.3815,0.6015252936,-0.0466525948,1.167678441,1.314337127
3259.3695000000002,0.4408800602,0.06603962302,1.090999809,1.178565672
3269.3575,0.3646966875,0.1753047878,0.9488177437,1.031499177
3279.3455,0.4036216021,0.2409468001,0.7846361142,0.914669115
3289.3335,0.4893055308,0.2865609294,0.6722877127,0.8794929433
3299.3215,0.5420784062,0.3108373994,0.5642147952,0.8419068966
3309.3085,0.4665277022,0.2879449654,0.4332880354,0.6987838876
3319.2965,0.3536571443,0.2737081647,0.313929407,0.5463892456
3329.2844999999998,0.3735142887,0.2744326347,0.3237363571,0.5653595526
3339.2725,0.5066039336,0.2210756224,0.389724817,0.6763190145
3349.2605000000003,0.6865245134,0.1956759024,0.3984783912,0.8175512182
3359.2485,0.8024367929,0.1918775511,0.4039449531,0.9186366672
3369.2365,0.8447127467,0.1565837574,0.3364914733,0.9226508599
3379.2245,0.7879035383,0.0846255827,0.2867228973,0.8427119881
3389.2125,0.6931447309,0.01039342582,0.2052688444,0.7229750617
3399.2005,0.617413348,-0.04360970378,0.08244691014,0.6244185627
3409.1875,0.5492979634,0.03495582461,-0.04902831852,0.5525883986
3419.1755000000003,0.4009997106,0.1612708855,-0.07413860142,0.4385266224
3429.1635,0.2980226415,0.07481570899,-0.161468229,0.3471121925
3439.1515,0.3858261859,-0.04454174995,-0.2899757034,0.484697557
3449.1394999999998,0.7254570293,-0.1502512228,-0.3301723874,0.8110962562
3459.1275,1.08600044,-0.324925096,-0.2525690183,1.161363157
3469.1155,1.24802737,-0.3618561101,-0.1464780146,1.307657436
3479.1034999999997,1.229126245,-0.3852847338,-0.01864501655,1.288232623
3489.0915,1.129131256,-0.4880495489,0.2483765647,1.254918593
3499.0785,0.9251295036,-0.5386712337,0.5706502408,1.2131253
3509.0665,0.7420140052,-0.510311653,0.8110099804,1.21191582
3519.0545,0.6680777174,-0.510439707,0.8519282109,1.196937011
3529.0425,0.6481749648,-0.4519049853,0.797809014,1.122874937
3539.0305,0.62724778,-0.3810145122,0.7520203453,1.050783725
3549.0184999999997,0.4407952756,-0.2433517599,0.7809348267,0.9291823059
3559.0065,0.1085026878,-0.153640269,0.8437833318,0.8644931906
3568.9945000000002,-0.1066409343,-0.01915313959,0.7999406165,0.8072447718
3578.9825,-0.4043910956,0.3098614991,0.7570208842,0.9124839319
3588.9695,-0.5024430549,0.2463151288,0.5764068246,0.8033461231
3598.9575,-0.130115751,-0.2768832028,0.3368627715,0.4550504845
3608.9455,0.08738079071,0.2687462175,-0.0006510874629,0.2825957465
3618.9334999999996,0.2171386921,0.6848527944,-0.02131660938,0.7187676672
3628.9215,0.2628697658,0.4362438029,-0.1228570175,0.5239303542
3638.9095,-0.08251239896,0.2528996783,-0.2160508177,0.3427017641
3648.8975,-0.3179411817,0.2997616035,-0.2336936215,0.4955363989
3658.8855,-0.4108633786,0.2374337929,-0.1739333233,0.5054070863
3668.8735,-0.7233227956,0.2664441687,-0.1701121679,0.7893836275
3678.8615,-0.9698694742,0.4904393059,-0.1122121614,1.0925974
3688.8485,-0.9987582278,0.6755492896,-0.1492533955,1.214973834
3698.8365,-1.177454401,0.5965171534,-0.01269050449,1.319997208
3708.8245,-1.213275028,0.4584714085,0.1518314329,1.305865656
3718.8125,-1.062279455,0.3738358855,0.1747626047,1.13961962
3728.8005000000003,-0.9093794435,0.3384426892,0.07325961873,0.9730783103
3738.7885,-0.822426669,0.2153418428,0.1237241596,0.859107329
3748.7765,-0.6787401152,0.2567196643,0.07143367946,0.729174808
3758.7644999999998,-0.5268271136,0.2982424968,0.2001718265,0.6376238348
3768.7525,-0.6745219338,0.2798600203,0.2576503949,0.7743934375
3778.7395,-0.8435789716,0.1521468902,0.2533259404,0.8938390177
3788.7275,-0.813589772,-0.001227915287,0.1994109575,0.8376721046
3798.7155000000002,-0.5775061011,-0.005921475291,0.2154734051,0.6164228654
3808.7035,-0.2165504622,0.1313740718,0.5176714703,0.5763132834
3818.6915,0.1832359511,0.4393510133,0.6997351277,0.8463060768
3828.6794999999997,0.1934089369,0.7305511236,0.7051806396,1.033630348
3838.6675,-0.1044821423,0.8011088902,0.7505065012,1.102702127
3848.6555,-0.4373442489,0.869162879,0.7379285556,1.221168561
3858.6434999999997,-0.7422163188,1.038949065,0.8106369281,1.512426015
3868.6305,-0.9557999039,1.021840696,0.8531567109,1.638776445
3878.6185,-1.135787727,0.9852032125,0.8001499468,1.70319672
3888.6065,-1.124318998,1.074568548,0.8321769011,1.76389035
3898.5945,-1.024842072,0.9990593594,0.8190908325,1.649039317
3908.5825,-1.098021145,0.8345894623,1.029440907,1.721028352
3918.5705,-1.16707033,0.5761173874,1.239253038,1.797140087
3928.5584999999996,-1.04114177,0.298315587,1.378703284,1.753223067
3938.5465000000004,-0.603109889,0.2209078074,1.255794811,1.410518488
3948.5345,-0.04893593252,0.2256019521,1.028642104,1.054227464
3958.5225,0.3759057999,0.2549450344,0.8418423486,0.9565566793
3968.5095,0.8292673266,0.2064961749,0.542498821,1.01224006
3978.4975,1.039638451,0.1734629148,0.1979259109,1.072432822
3988.4855,0.8813584167,0.2572254485,-0.2375781461,0.9483675266
3998.4734999999996,0.6192838722,0.3470538837,-0.3843770997,0.8072822724
4008.4615000000003,-0.03403664231,0.5330210692,-0.3059310007,0.6155190739
4018.4495,-0.5619653714,0.9002887774,-0.3489056969,1.117166123
4028.4375,-0.8615340167,1.193862857,-0.3488611118,1.513027911
4038.4255,-0.8423387772,1.312287685,-0.5295447533,1.646830662
4048.4134999999997,-0.556241532,1.096075192,-0.814059815,1.474272312
4058.4005,-0.2258416879,0.7526921904,-1.276243694,1.498782161
4068.3885,-0.1751007199,0.3095960355,-1.523176142,1.564153294
4078.3765,0.4598191917,-0.3352670664,-1.337347244,1.453387541
4088.3645,1.330387157,-0.7615682638,-0.50584745,1.614248385
4098.3525,2.863375658,-7.151618952,2.50833974,8.101625889
4108.340499999999,2.093040664,-6.451380964,1.721720689,6.997532257
4118.3285,-0.02392446756,-2.72639586,-3.116565943,4.140868272
4128.316500000001,0.5065735281,-1.152232436,-3.504873687,3.724029523
4138.3045,0.1590278935,-0.9082959545,-2.145949194,2.335677494
4148.2915,0.7069944459,-0.8761263281,-1.267248337,1.695097884
4158.2795,3.394986963,-0.5762349164,-2.022689888,3.993652156
4168.2675,2.828496432,-1.006897552,-2.572540998,3.953757951
4178.255499999999,1.991252918,-0.7723154461,-1.424725257,2.567372468
4188.2435,1.030691627,-0.1595137972,0.4975292011,1.15555406
4198.231500000001,-0.370159741,0.170035277,2.646861448,2.678022732
4208.2195,-1.273243487,0.3685079026,3.468467753,3.713114004
4218.2075,-1.483999359,0.6667018676,3.571571707,3.92464902
4228.1955,-0.7978777188,1.138577433,2.625855911,2.971209634
4238.1825,0.02608325958,1.303580596,1.476093339,1.969480706
4248.170499999999,0.5941987324,1.453752297,0.7558356535,1.742915778
4258.1585000000005,0.6415243417,1.642467674,0.513004442,1.836416919
4268.146500000001,0.1200064999,1.522207405,0.601985908,1.641311664
4278.1345,-0.420424161,1.442656621,0.8601594825,1.731441289
4288.1225,-0.6646477407,1.423823909,0.8986212976,1.810124686
4298.1105,-0.8215437394,1.261375394,0.5821009894,1.613952776
4308.0985,-1.015183641,1.099465992,0.1604875048,1.505051339
4318.086499999999,-1.019386035,0.867188859,0.1008881512,1.342141135
4328.0735,-0.7791748148,0.7599754822,0.2499580903,1.116761019
4338.0615,-0.6843125117,0.5187018228,0.2606862693,0.8973809256
4348.0495,-0.9650215477,0.3929773307,0.6518720131,1.229078879
4358.0375,-0.9218264115,0.380349099,1.043978255,1.443717412
4368.0255,-0.6022538567,0.3739434743,0.9528248405,1.187610461
4378.0135,-0.3441033787,0.3651048231,0.6066861923,0.7872590444
4388.001499999999,-0.1273985499,0.3949595368,0.04114554092,0.4170328306
4397.989500000001,-0.07157108903,0.2521319389,-0.461756959,0.5309542584
4407.9775,-0.2009880978,0.04415758789,-0.7561725993,0.7836728323
4417.9655,-0.4201803321,-0.049342314,-0.8031291032,0.907745852
4427.9525,-0.9418262279,0.02499743164,-0.8103726339,1.242724958
4437.9405,-1.617005389,0.1983673757,-0.6502197361,1.754092856
4447.9285,-1.959718884,0.4662610692,-0.4515734482,2.064416641
4457.916499999999,-1.859023983,0.6764626247,-0.4237407017,2.023148051
4467.904500000001,-1.516671261,0.6579450774,-0.4243850648,1.706835119
4477.8925,-1.219567802,0.2842027473,-0.2426781607,1.275542831
4487.8805,-0.9968760091,-0.08603476167,0.001196413413,1.000582425
4497.8685000000005,-0.2569067752,-0.7296611774,0.4109013855,0.8759260663
4507.8565,0.1250918233,-1.049414996,0.6848481897,1.259339843
4517.8435,0.556380111,-1.641022827,0.9325350753,1.967774482
4527.831499999999,0.4494900852,-2.371666337,0.9895781723,2.608851761
4537.8195000000005,-0.02996522605,-2.426817859,1.335120478,2.76999811
4547.8075,-0.2710470968,-2.141794748,1.584710047,2.678069679
4557.7955,-0.3155344677,-1.507297005,1.406755886,2.085777645
4567.7835,-0.8203473991,-0.8903970426,1.074973322,1.619056636
4577.7715,-1.561544548,-0.1483198875,0.9231725136,1.82007353
4587.7595,-2.168016002,0.9804459178,1.143192714,2.639783544
4597.7474999999995,-2.45986106,1.964522372,-1.649376744,3.553970769
4607.7345000000005,-1.653672693,2.576146976,-6.802791023,7.459834605
4617.7225,1.024255012,1.698680466,0.02136448346,1.983701111
4630.5055,0.2699916744,0.2141525191,-0.07357960761,0.3523787229
4640.4935,0.1728796551,0.1210959823,-0.4290768707,0.4781825729
4650.4815,0.1922932881,0.01719388381,-0.5385232991,0.572083632
4660.469499999999,0.09725206017,-0.0643296048,-0.4652284509,0.4796183616
4670.4575,0.1399924292,-0.05340042785,-0.2842863625,0.3213537332
4680.4445000000005,0.2715935192,0.006314115822,0.03354664564,0.2737303146
4690.4325,0.3331861885,0.06537216336,0.1856800872,0.3869930887
4700.4205,0.4153360601,0.1225707963,0.1335334486,0.4531653394
4710.4085,0.4577331975,0.1689272296,0.05670571268,0.4911940827
4720.3965,0.2052964725,0.08780749127,0.06702663302,0.2331295062
4730.3845,0.4224490517,0.05252802327,-0.09819755495,0.4368811673
4740.3725,0.2666711868,0.1009341981,-0.2380471659,0.3714400186
4750.3605,0.1297826059,0.04548490584,-0.3998711979,0.4228585773
4760.3485,0.185290955,-0.02918169916,-0.464182384,0.5006491738
4770.3355,0.2876892959,-0.03814153388,-0.1702551323,0.3364620597
4780.3234999999995,0.4897199522,-0.04740644708,0.221798923,0.5396922874
4790.3115,0.5242578471,-0.1113707471,0.5477917206,0.7663716479
4800.2995,0.3538126802,-0.2406078078,0.7844197673,0.893526665
4810.2875,0.1580455613,-0.3451373126,0.8114760035,0.8958746945
4820.2755,0.1026975721,-0.3558431259,0.6680917507,0.7638833085
4830.2635,0.215256108,-0.2419640695,0.4245049328,0.5339346785
4840.2515,0.2404230358,-0.01013761014,0.200546633,0.3132490372
4850.2395,0.3594058344,0.1053886069,-0.0006010937691,0.3745392817
4860.2275,0.5419087639,0.2123349121,-0.2318999881,0.6265212109
4870.2145,0.6605116396,0.3777636065,-0.3332304811,0.8306765448
4880.2025,0.6827135175,0.4843120086,-0.4595046115,0.9548823784
4890.1905,0.7067045702,0.5290383844,-0.6939838064,1.12290983
4900.1785,0.6235327515,0.4228373069,-0.965092299,1.224331502
4910.1665,0.2911846883,0.01667684376,-1.201416875,1.236312722
4920.1545,-0.1742743256,-0.2517606407,-1.488746129,1.519907891
4930.1425,-0.1171092776,-0.1879379895,-2.030183095,2.042223952
4940.1305,1.16002005,0.180968547,-3.289442967,3.492682517
4950.1185000000005,2.008595029,0.6713036263,-3.644570686,4.215210319
4960.1055,1.754514067,1.365496324,-1.901714505,2.925648284
4970.0935,0.6513988271,2.030425316,0.1385404193,2.136853024
4980.0815,-1.715277496,3.125214267,3.075502117,4.708275095
4990.0695,-1.365784446,1.723958711,-0.9178403646,2.383239754
5000.0575,-0.8533118083,-0.3674092108,-0.6994304878,1.162898782
5010.0455,-1.091873895,-1.576293857,0.5955605489,2.007880299
5020.0335000000005,-1.257103564,-1.129267643,0.9383424568,1.932884204
5030.0215,-1.004146583,0.8618816337,1.379302624,1.91144606
5040.0095,-0.493378555,2.786258485,2.323742557,3.661480331
5049.9965,0.5506543712,2.232011584,-0.4887903911,2.350321679
5059.9845,1.673030924,-0.1131304666,-2.134402113,2.714314528
5069.972500000001,1.242085137,-0.3550338712,-1.627492955,2.077873397
5079.9605,1.495477297,0.1356024858,-2.297628307,2.744801672
5089.9485,1.519189803,0.2670908707,-1.729339757,2.317302567
5099.9365,1.375951,-0.8858001079,-0.6648839682,1.76633906
5109.9245,0.9328096752,-1.371304071,2.040311642,2.629349795
5119.912499999999,1.228694429,-1.338114398,2.051527187,2.740256181
5129.9005,1.194461466,-1.030742497,1.64819853,2.281606163
5139.8885,0.9816291019,-1.312050581,1.427200091,2.173010014
5149.8755,1.364110681,-1.528651037,0.0712693727,2.050036893
5159.8635,1.10215118,-1.373090103,-0.6566850024,1.879188348
5169.8515,0.8608104969,-1.042379187,-0.7902938801,1.565922571
5179.8395,0.3850778154,-1.308014686,-0.230749256,1.382907286
5189.827499999999,-0.5181282109,-1.065854735,1.220424419,1.701158112
5199.8155,-0.385465632,-0.6628200473,1.261690559,1.476406866
5209.8035,-0.6341822854,-0.9670117937,1.402212015,1.817552617
5219.7915,-0.6889006025,-1.225506819,0.7896272975,1.612439851
5229.779500000001,-0.4276966354,-1.10036851,0.01775916338,1.180699224
5239.7665,-0.4929767051,-0.7884078607,-0.2649975675,0.9668695348
5249.7545,-0.4908364049,-0.4336157718,-0.7427817446,0.9902866929
5259.742499999999,-0.5554519386,-0.2729138204,-0.7788368458,0.9947842187
5269.7305,-1.149201166,-0.2229470238,0.2872088009,1.205345424
5279.718500000001,-0.5266541091,0.1655343828,-0.7940156329,0.9670713561
5289.7065,-0.7963119806,-0.1762529138,-0.7763044167,1.125977978
5299.6945000000005,-1.185220526,-0.7120677826,0.1652902615,1.392518974
5309.6825,-1.139388223,-0.4653948042,0.7716202122,1.452651231
5319.6705,-0.6182811479,-0.6498686108,-0.0241016382,0.8973191618
5329.657499999999,-0.2361696249,-0.03694036961,-0.8772507477,0.9092356993
5339.6455,-0.6441197746,0.3868674289,-0.5379461789,0.9240902461
5349.633500000001,-0.6932090503,0.2098513073,-0.4067779291,0.8306892573
5359.6215,-0.5270942583,0.2682714236,-0.187818414,0.6205430448
5369.6095000000005,-0.5361364657,0.3088370669,-0.01843685567,0.6190012612
5379.5975,-0.6222272875,0.3542129222,0.3242503273,0.7859846476
5389.5855,-0.4781741133,0.4014177865,0.7770727408,0.9968092929
5399.5734999999995,0.08706650287,0.5147005731,0.9881648272,1.117571913
5409.5615,0.6754711562,0.8850655514,0.8939088804,1.427821907
5419.5485,0.9934004241,1.427531336,0.7150314438,1.88041487
5429.5365,1.46248526,1.439692959,0.183910135,2.060437306
5439.5245,0.9902677783,0.662388669,-0.113773368,1.196801321
5449.5125,1.878531026,-0.5850446239,1.140172554,2.274016156
5459.5005,4.05070659,-1.948279392,1.712123215,4.809925402
5469.4884999999995,1.593075366,-1.48738899,-1.959570365,2.930892551
5479.4765,0.8762333322,0.3284977448,1.324840488,1.622004297
5489.4645,0.7705741453,0.3358854094,2.37344389,2.517903775
5499.4525,0.6188334174,-0.934463414,-2.991005173,3.194102161
5509.4395,0.3992524163,-1.259281798,-4.841392234,5.018393359
5519.426875,0.2967184932,-1.332262066,-2.748556223,3.068798688
5529.4148749999995,-0.03172172964,-1.755752507,-0.8961869556,1.971503029
5539.402875000001,-0.5292401133,-1.189343252,0.3348039669,1.344145143
5549.390875,-1.103627602,-0.652103709,0.9485066718,1.594646681
5559.378875,-1.198881669,-0.4088528135,1.284333317,1.80388191
5569.366875,-0.6679118027,-0.3461604291,1.42707496,1.613219192
5579.354875,-0.5226739825,-0.3734411985,1.393371025,1.534317188
5589.342875,-0.7128457546,-0.09864545166,1.368896919,1.546531205
5599.329874999999,-1.048645649,0.3402570802,1.386050311,1.771035867
5609.317875000001,-1.472600504,0.3968844402,1.568003967,2.187397071
5619.305875,-1.576734591,0.2761505467,1.665811513,2.310255201
5629.293875,-1.373347235,0.2484031695,1.387865871,1.968237394
5639.281875,-1.210297626,0.4804668796,0.9104752117,1.588909651
5649.269875,-1.09616597,0.6439088362,0.5632096589,1.390468821
5659.257874999999,-1.052932096,0.6800288415,0.4076187587,1.318050939
5669.245875,-1.188441757,0.5433881825,0.3590979785,1.355218022
5679.233875000001,-1.503222227,0.3731891835,0.2688327563,1.572010903
5689.220875,-1.750478757,0.5189555919,0.1846176481,1.835095219
5699.208875,-1.830745094,0.6130384612,0.2946786189,1.953017984
5709.196875,-1.735313857,0.6603921372,0.5003754795,1.922968429
5719.184875,-1.379970668,0.6666100663,0.6374798226,1.659839917
5729.172874999999,-1.011219521,0.7381454873,0.523991214,1.357199497
5739.160875,-0.8198381066,0.850233103,0.3753526533,1.239322583
5749.148875000001,-0.6694287166,0.7932297671,0.3030670345,1.081294547
5759.136875,-0.4298589358,0.6366471791,0.2763616312,0.8163786416
5769.124875,-0.2116879177,0.5134083384,0.1977300292,0.5894888132
5779.112875,0.0404636094,0.5088884407,0.1635238177,0.536045509
5789.099875,0.1806947511,0.571966449,0.3023314548,0.6717146123
5799.087874999999,0.2555911517,0.6086711758,0.5982461751,0.8909017472
5809.075875,0.3276721179,0.5710940444,0.9790688986,1.179870049
5819.063875000001,0.2545570716,0.4933260763,1.064687923,1.200720739
5829.051875,0.02085175574,0.3856466764,0.9810744935,1.054355403
5839.039875,-0.3311807397,0.3661251622,0.8106562239,0.9491532174
5849.027875,-0.3891602683,0.3938339478,0.6524422628,0.8557054394
5859.015875,-0.219203344,0.5084990162,0.4801967382,0.7329462892
5869.003874999999,-0.01365471035,0.6065843046,0.2281718034,0.6482232189
5878.990875,-0.03965113878,0.7422280133,-0.01390877187,0.7434164986
5888.978875000001,-0.1950274462,0.8010194278,-0.251827299,0.8620236754
5898.966875,-0.5140065086,0.7138280869,-0.487954824,1.005909111
5908.954875,-0.9213255975,0.6269829011,-0.6112053591,1.271031237
5918.942875,-1.138031011,0.5391536289,-0.5418942189,1.370930546
5928.930875,-0.576982483,0.4344077772,-0.1026127875,0.7294849462
5938.918874999999,0.9397478351,0.1981124371,0.9400948673,1.343931877
5948.906875,1.537764507,0.5042410737,1.534630399,2.230262137
5958.894875,1.706116955,0.1323704374,2.035042716,2.65890125
5968.882875,1.574476543,-0.0776709044,2.381748691,2.856175061
5978.869875,1.193110028,-0.04474581778,2.422948172,2.701146344
5988.857875,1.084847369,-0.1970073134,2.084715983,2.35833552
5998.845875,0.9634714508,-0.1335235083,1.52783535,1.811183762
6008.833874999999,0.8999186486,-0.08081963003,1.415974606,1.679693267
6018.821875000001,0.5478458074,-0.1548471344,1.148125936,1.281524806
6028.809875,0.2123714572,0.1312612206,0.7032539821,0.746255524
6038.797875,-0.5611771667,0.1116449815,-0.5456007689,0.7906102791
6048.7858750000005,-1.260646246,-0.2179210496,-2.389658804,2.710569634
6058.773875,-1.265795304,0.2654004407,-5.932227736,6.071573195
6068.760875,-2.257264978,-1.231936417,-5.444711453,6.021444621
6078.748874999999,-2.552486218,-1.135153304,-3.473653064,4.457580568
6088.7368750000005,-2.028884721,-0.9325022578,-2.140183255,3.092946498
6098.724875,-1.059357017,-0.7501135683,-1.312258449,1.845787066
6108.712875,-0.5165433231,-0.335727827,-0.8421797329,1.043454302
6118.700875,-0.2459467542,-0.2792174113,-0.3112566447,0.4851111909
6128.688875,-0.1917299089,-0.2456005991,0.2710868579,0.4129989065
6138.676875,0.0137326245,-0.2604718226,0.8091751242,0.8501755918
6148.6648749999995,0.2050188759,-0.2233648074,1.102517654,1.143446437
6158.6518750000005,0.1909433122,-0.2223567474,1.118553643,1.15631489
6168.639875,0.4444196722,-0.3647639304,0.9483534747,1.109024744
6178.627875,0.8467427538,-0.5191859722,0.6107223791,1.165979927
6188.615875,0.8491746108,-0.5896121764,0.161979568,1.046411687
6198.603875,0.8007058708,-0.6509026909,0.04056447387,1.032690506
6208.591875,0.8601879877,-0.6790611273,0.2026142085,1.114495359
6218.579874999999,0.7945757961,-0.6508114743,0.4558647197,1.123707664
6228.567875000001,0.770993683,-0.4425587958,0.7757348979,1.179853456
6238.555875,0.8342586561,-0.2239290637,0.9838121599,1.309205139
6248.542875,0.6351507305,-0.1157356936,0.9498603022,1.14849719
6258.530875,0.2351133254,-0.1042529315,0.6440298736,0.6934849873
6268.518875,0.1046297845,-0.3052708501,0.09080433547,0.3352359036
6278.506875,0.08098364443,-0.04205142081,-0.3293777508,0.3417841063
6288.494874999999,-0.05388355404,0.314653877,-0.229489181,0.3931612696
6298.482875000001,0.0468815133,0.3749965578,0.03165799499,0.3792394011
6308.470875,0.2968957369,0.2289301872,-0.02207674742,0.3755575748
6318.458875,0.5300117996,0.2221339685,-0.3135142547,0.6546351622
6328.446875,0.6927538446,0.3395764643,-0.3991502362,0.8686431807
6338.433875,0.8320853922,0.3324563098,-0.1817642069,0.9142929097
6348.421875,0.7252545695,0.3718823308,0.1262577581,0.8247615898
6358.409875,0.1689370237,0.06269618511,0.05803536952,0.1893109446
6368.397875000001,-0.5193467706,-0.3802298158,-0.2362321901,0.6856394305
6378.385875,-1.056315587,-0.7518484372,-0.5256342816,1.399060431
6388.373875,-1.388238339,-0.9378226393,-0.8443180597,1.876057028
6398.361875,-1.239399072,-0.9558162761,-0.3839854825,1.611564353
6408.349875,-1.154125764,-0.6196656954,-0.2576750994,1.335061164
6418.337875,-0.5691077453,-0.528691206,-0.1920517981,0.8001761745
6428.3258749999995,0.450835091,-0.3384000045,0.7947401029,0.9743606486
6438.3128750000005,1.186789188,0.04235956907,2.218488582,2.516337517
6448.300875,1.504886783,0.433528356,3.505916246,3.83980205
6458.288875,1.477585548,0.8057778919,3.657074372,4.025758316
6468.276875,1.531988043,0.9058763766,2.317632802,2.922160361
6478.264875,1.147002686,0.5943332183,0.2547544152,1.31671825
6488.252875,0.9864972013,0.006257690191,-1.376505316,1.693511964
6498.2408749999995,0.8172293714,-0.4934096915,-1.713188578,1.96120679
6508.228875000001,0.3383065952,-0.4459034032,-1.277614281,1.394840295
6518.217042,0.1014351583,-0.1281703824,-0.1307782406,0.2093315228
6528.204041999999,-0.04266450137,0.1299637234,0.9654659361,0.9751078416
6538.192042000001,0.08864788234,0.5232111955,1.385649776,1.483790317
6548.180042,0.4093781859,0.6754914021,1.799411035,1.965135926
6558.168042,0.4836157514,0.6391649902,1.846612099,2.013055469
6568.156042,0.2196572341,0.5993881363,1.579397852,1.703529575
6578.144042,-0.1181177031,0.2791267794,1.313133193,1.347658092
6588.132042,-0.2144128664,-0.05580524147,0.9218995017,0.9481486136
6598.120042,-0.1567287683,-0.1228921008,0.3607644349,0.4120890108
6608.108042,-0.2121837616,-0.1160105127,-0.1798252702,0.3013594457
6618.096042,-0.2704606211,-0.04052588224,-0.5505206162,0.6147066321
6628.083042,-0.34018399,-0.06395742953,-0.6517125303,0.7379328709
6638.071042,-0.4291585855,-0.08688728571,-0.6390000987,0.774627406
6648.059042,-0.4654113226,-0.1661527258,-0.5993115377,0.7767810159
6658.047042,-0.4362603213,-0.1420750612,-0.520767644,0.6940513886
6668.0350419999995,-0.4066307254,-0.08159672499,-0.3775231397,0.560830004
6678.023042000001,-0.4296760641,-0.05316346943,-0.2512782454,0.5005882851
6688.011042,-0.3832741687,-0.07450873017,-0.150937686,0.418608199
6697.999042,-0.3501667951,-0.02360170126,-0.236486544,0.423201737
6707.987042,-0.4711686373,0.03989262879,-0.3924002105,0.6144666238
6717.974042,-0.612397314,0.1083629394,-0.4792155755,0.7851245536
6727.962042,-0.5970467649,0.1508412069,-0.4783133501,0.7797445544
6737.9500419999995,-0.416322193,0.2567395449,-0.5000445271,0.6994883068
6747.938042000001,-0.2816691488,0.3448845667,-0.5269393802,0.6898898347
6757.926042,-0.3702687916,0.3612930232,-0.5701754469,0.769890685
6767.914042,-0.7239661355,0.4123631895,-0.5515099651,0.9991664561
6777.902042,-1.070539232,0.3219418466,-0.4318513745,1.198414123
6787.890042,-1.041943716,0.184538126,-0.3118951607,1.103167992
6797.878041999999,-0.9577793325,0.07311241508,-0.2131315953,0.9839267005
6807.865042,-0.8313515666,0.02673405468,-0.05223668575,0.8334199472
6817.853042000001,-0.5907251939,0.08677501917,0.207302506,0.6320288662
6827.842042,-0.373414886,0.1799568325,0.4691419923,0.6260330244
6837.8300420000005,-0.04042867228,0.2935115147,0.6614300179,0.7247573079
6847.818042,0.2044049183,0.4390510511,0.8190545797,0.9515238309
6857.805042,0.3718544103,0.5180352402,0.834302364,1.050093637
6867.793041999999,0.1884842657,0.5118219888,0.6828290731,0.8739242585
6877.781042,-0.1501747705,0.3408593434,0.3608731931,0.5186202997
6887.769042000001,-0.4092379989,0.1115771538,-0.01838423073,0.4245741171
6897.757042,-0.3803106536,-0.03170594215,-0.3971610135,0.5507979036
6907.7450420000005,-0.057594928,-0.1143499035,-0.6525077516,0.6649507065
6917.733042,0.1552095155,0.05274130046,-0.755019967,0.7726103733
6927.721042,0.2932337719,0.1213718247,-0.6210608411,0.6974480147
6937.7090419999995,0.3076968598,0.1641944933,-0.344909125,0.4905094226
6947.696042,0.1197582856,0.2399966276,-0.1125974929,0.2908928044
6957.684042000001,0.05327909812,0.3367353022,0.1007638979,0.3555034306
6967.672042,0.07560084388,0.3738809091,0.2841542155,0.475653277
6977.660042,0.214162167,0.2813440436,0.5219400108,0.6304294406
6987.648042,0.4503410013,0.2607904959,0.6076748103,0.8000546077
6997.636042,0.5487594348,0.1759760481,0.595990904,0.8290414009
7007.6240419999995,0.6033107409,0.184307161,0.4383224881,0.7681663773
7017.612042,0.5276553717,0.1752305281,0.234640578,0.6034750452
7027.600042,0.3090306097,0.1126910484,0.06730028272,0.3357506786
7037.588042,0.1259564804,0.1015977108,-0.0157179004,0.1625859225
7047.575042,0.005883029848,0.1066894662,0.0304002589,0.1110919799
7057.563042,0.01075390667,0.118292681,0.09750641406,0.1536759762
7067.551042,0.02055267066,0.04367519259,0.2707249153,0.2749943899
7077.539041999999,0.06015425429,-0.06633841574,0.4798295331,0.4881144339
7087.527042,-0.09405363321,-0.173880406,0.5579085732,0.591897337
7097.515042,-0.2006860891,-0.2030714607,0.590104512,0.6555427214
7107.503042,-0.2052093489,-0.2486791581,0.6221191871,0.7007028497
7117.491042000001,-0.3169057859,-0.2875976408,0.6040460283,0.7402791935
7127.479042,-0.3209791026,-0.3134318089,0.5198355979,0.6866557594
7137.466042,-0.273746464,-0.211697858,0.3545055753,0.4954062096
7147.454041999999,-0.185666931,-0.1872793007,0.157569598,0.3072033918
7157.442042,-0.1545702687,-0.1946538091,-0.01830646276,0.249233224
7167.430042,0.09500877589,-0.2294342172,-0.1586291134,0.2946691758
7177.418042,0.4016338411,-0.222271378,-0.3010538381,0.5489514744
7187.4060420000005,0.706075556,-0.1315290231,-0.4510834515,0.8481266738
7197.394042,0.7506819177,-0.07644649744,-0.6395836508,0.989158559
7207.382042,0.6598407447,0.09376478076,-0.7974514568,1.039283632
7217.370042,0.586982245,0.1478947949,-0.9294722307,1.109206768
7227.357042000001,0.4693099536,0.2313725692,-1.058180557,1.18047922
7237.345042,0.2453800128,0.2908229649,-1.112892369,1.176145728
7247.333042,0.06807650059,0.2993943983,-1.059858123,1.103435842
7257.3210420000005,0.006156971902,0.24723665,-0.937006368,0.969094837
7267.309042,0.0923092626,0.2487306136,-0.8614235044,0.9013536331
7277.297042,0.1012954098,0.2308954364,-0.8329896641,0.8703133017
7287.2850419999995,-0.1051718214,0.1905724525,-0.7382407969,0.769661254
7297.273042,-0.4149400574,0.1486327136,-0.6136816549,0.7555607907
7307.261042,-0.8078814277,0.09931788146,-0.4149447352,0.913627701
7317.249042,-1.042481368,-0.01426018953,0.003145802021,1.042583642
7327.236042,-0.8080384254,-0.04895698249,0.5201770753,0.9622406522
7337.224042,-0.3389908656,-0.0228409785,0.9804926956,1.037690919
7347.212042,0.1253498317,0.03415592551,1.272730102,1.279344019
7357.2000419999995,0.430889069,0.1140686524,1.384738196,1.454708533
7367.188042000001,0.5682378258,0.2079994941,1.331025673,1.462117423
7377.176042,0.6565464234,0.1635454524,1.224657803,1.399137969
7387.164042,0.5903489256,0.03390157163,1.084740365,1.235444385
7397.152042,0.4466019993,0.0238168788,0.8439496851,0.9551291329
7407.140042,0.4547446856,0.00808377564,0.5785071445,0.7358862634
7417.127042,0.4166168927,0.03541716993,0.3555013561,0.5488216699
7427.115041999999,0.3970513782,0.1830143416,0.1848953909,0.4746897426
7437.103042000001,0.4998473297,0.2757032347,0.1324984914,0.5860166182
7447.091042,0.620122363,0.3905349487,0.1111982542,0.7412383847
7457.079042,0.5723484184,0.4437101126,0.1566024685,0.7409356984
7467.067042,0.5481543942,0.3482016921,0.2489592397,0.6954842639
7477.055042,0.3642094682,0.3767068684,0.2895055872,0.5986401978
7487.043042,0.09952662706,0.4078204876,0.2832145679,0.5063927242
7497.031042,-0.009264767021,0.4195424008,0.2285875404,0.4778639196
7507.019042,0.02583051369,0.4439363998,0.1637325633,0.4738724457
7517.0064999999995,-0.002669546306,0.4345019174,0.07025838912,0.4401537049
7526.9945,0.0465534845,0.3666286075,-0.04330097079,0.3721004392
7536.9825,0.1556278838,0.1931838191,-0.09706436455,0.2663860301
7546.970499999999,0.2009414662,0.04896633804,-0.1699142396,0.2676677492
7556.958500000001,0.3296167557,-0.1113812721,-0.2156266022,0.4093260619
7566.9465,0.4643684717,-0.259148013,-0.3059122896,0.613496617
7576.9345,0.4845485285,-0.2282109797,-0.4643542922,0.7088670089
7586.9225,0.4079890336,-0.2660401261,-0.5727160621,0.7518218459
7596.9105,0.3239828172,-0.4628995049,-0.2881121957,0.634231389
7606.8975,0.0333598271,-1.049436631,-0.3991397113,1.123273176
7616.8855,-1.017216718,-6.747548869,-8.760711889,11.10469353
7626.873500000001,-0.2769035219,-5.940372323,-7.710598735,9.737455096
7636.8615,2.276215365,-3.497988591,3.830260713,5.664625115
7646.8495,2.968479359,-2.780214803,4.911872817,6.377143454
7656.8375,2.000681553,-0.7785959405,0.9212183011,2.336146715
7666.8255,1.02219226,0.05506732285,1.906936653,2.164328262
7676.813499999999,0.4577701811,0.8677776736,2.029021838,2.253779326
7686.8015,0.05040124476,1.263387421,1.21406908,1.752898112
7696.789500000001,0.2164899436,1.370692014,-0.7974736762,1.600508906
7706.7765,0.3111052018,1.494201581,-1.325301248,2.021348117
7716.7645,-0.629882243,1.230229615,-0.7870387352,1.590486251
7726.7525,-2.302108152,0.8550412685,-0.2315333676,2.466658714
7736.7405,-3.535050875,1.125433477,0.3971879107,3.731078053
7746.728499999999,-3.405116095,1.596678713,0.8872062171,3.864108358
7756.7164999999995,-3.559307172,1.007444851,1.416004427,3.960893991
7766.704500000001,-3.842392516,0.0468069613,1.773593824,4.232234184
7776.6925,-0.8128552155,0.4907533014,0.8554470652,1.27803055
7786.6805,1.872491291,1.465985842,0.5022699773,2.430558218
7796.6675,0.3160425907,0.8736283976,0.4843494308,1.047713638
7806.6555,-0.2126547548,1.405137962,0.1139856219,1.425702444
7816.643499999999,-0.1099735549,0.9882414258,0.25146828,1.025646915
7826.6315,0.23167794,0.8151439619,0.7000713426,1.099197085
7836.619500000001,0.4814652917,-0.01323868096,0.2641421199,0.5493224456
7846.6075,1.087189763,0.7802758455,1.068157661,1.712242029
7856.5955,1.176113342,0.3174412447,0.3819085515,1.276661928
7866.5835,0.742802356,0.1895819342,-0.8489361906,1.143848463
7876.5715,0.1809036429,0.2624107593,-0.8487110728,0.9065848111
7886.559499999999,-0.5696693704,-0.4941938031,-0.8919038701,1.168008228
7896.5465,-0.8790730324,-0.5861441928,-0.7015196979,1.268252458
7906.534500000001,0.02680451363,-0.1663562089,-0.696521498,0.7166136109
7916.5225,0.6437680645,0.5749707484,-0.7845256019,1.166408634
7926.5105,0.6316007397,0.7603304082,-0.928144328,1.355903285
7936.4985,1.008641557,0.4762171233,-1.49911675,1.868553336
7946.4865,1.702985771,1.108736168,-1.849823974,2.747963821
7956.474499999999,3.071055017,0.6928471076,-2.779127805,4.199400837
7966.4625,3.770513279,0.01628449559,-3.179610622,4.932236742
7976.4505,1.97901148,-0.7438184559,-2.393931364,3.193847165
7986.4375,-10.06355164,-3.189546211,3.412211691,11.09465932
7996.4255,-3.352999277,-1.783135895,2.594701946,4.599419089
8006.413500000001,2.002809648,-0.314067986,0.01123425543,2.027316303
8016.401500000001,0.7089496087,0.4955176127,-0.5797654653,1.041285382
8026.3895,-0.2875328828,0.4970133305,0.4346486825,0.7201505999
8036.3775000000005,-0.1034927934,0.3651059926,1.379035991,1.430298363
8046.3655,1.177093408,0.8569357663,0.7398014188,1.633154597
8056.3535,1.561715287,1.169337296,-0.107578243,1.953938952
8066.3415,-0.5926931474,0.257379815,0.2150909972,0.6810239888
8076.3295,-1.708624241,0.2389669329,0.03484180391,1.725605964
8086.316500000001,-0.9347853763,0.6684554476,-0.9909802616,1.517464419
8096.3045,-0.0813096267,0.7885432237,-0.9824702239,1.262402239
8106.2925000000005,0.4492740306,0.6481813967,-0.3179347497,0.8503345123
8116.2805,0.2594231245,0.5439600402,0.3429514772,0.6934036332
8126.2685,-0.2611294882,0.2766528225,0.6944398892,0.791815732
8136.2565,0.03241140872,0.1871629411,0.1007878715,0.2150317674
8146.2445,0.3618046546,0.3506855893,-0.6880787033,0.8528395468
8156.2325,0.8785290952,-0.2459935319,-2.251965061,2.429747482
8166.220499999999,1.951015742,-0.7443189776,-3.146301958,3.776200362
8176.2085,1.203782805,-0.7330291736,1.12559486,1.803715221
8186.1955,-0.3829274288,-0.6955707407,1.888450681,2.0485844
8196.1835,-0.8078146233,-0.6784167641,1.094479487,1.520098391
8206.1715,-0.1160584599,-0.5976094133,1.802987192,1.902989593
8216.1595,0.5948743781,-0.7916615438,1.781905641,2.038575787
8226.1475,1.592709915,-0.8898590988,1.639163412,2.452637516
8236.1355,1.257502344,-0.9724288005,0.4074404186,1.641017249
8246.1235,1.160641024,-0.78318542,0.2005752844,1.414460121
8256.111499999999,0.9342821503,-0.5173277271,0.293288151,1.107487721
8266.099499999998,0.7268015966,0.01306560338,0.2939330989,0.7840968929
8276.0875,-3.961042754,-0.07942331493,-1.095672319,4.110555388
8286.0745,-8.713882123,0.1866127181,-1.148683761,8.79124794
8296.0625,-0.06952295557,-0.28655976,-0.9188887703,0.9650422321
8306.0505,-0.03647288471,-0.751409896,0.004123456478,0.7523058594
8316.038499999999,0.4529005469,-0.2828713363,1.399140472,1.497574425
8326.0265,0.4673819073,-0.209641977,1.203406683,1.307892675
8336.0145,0.4239245966,-0.1678174281,0.9737929559,1.075242984
8346.0025,0.630578354,-0.3935532814,0.1307063198,0.75471676
8355.9905,0.5735948986,-0.2701782006,-0.1260969597,0.6464578958
8365.978500000001,-0.2522481523,-0.1308805668,0.1540156603,0.3232331616
8375.9655,-0.4078698235,0.01467241824,0.2041958803,0.4563650187
8385.9535,-0.05237614185,0.3515129703,-0.1599850827,0.3897433197
8395.941499999999,0.01186210021,0.375456149,-0.02459689736,0.3764479202
8405.929499999998,-0.9724206144,0.1707077068,-0.3773301816,1.056939468
8415.917500000001,-0.275641108,0.2556215572,-0.2044098884,0.4279063021
8425.9055,-0.3950352582,0.1628870559,-0.1570860332,0.4552593437
8435.8935,-0.3055855764,0.007347026467,-0.352198264,0.4663476605
8445.881500000001,-0.3836738259,0.05494160771,-0.07514315307,0.3948046078
8455.8695,-0.1577246954,-0.002544708252,0.2091934955,0.2620028123
8465.8575,0.373914092,0.1700066257,0.03774026871,0.4124782768
8475.8445,-0.05253957152,0.192963379,0.3493582714,0.4025499646
8485.8325,-0.1793061836,0.477662555,0.007721832991,0.5102664506
8495.8205,-0.1404393026,0.813018499,-0.1580677807,0.8400641052
8505.808500000001,0.1605664422,1.193679255,-0.316947155,1.24543456
8515.79625,1.66651888,1.301799535,-1.368815058,2.51905178
8525.784249999999,-0.7449728425,1.34283354,-0.2984576744,1.564373176
8535.77225,-0.3639615463,1.289427996,-0.7322251815,1.52684193
8545.760250000001,-2.022718247,0.1958916646,1.484650154,2.516733743
8555.74825,-1.563566662,0.4487890041,0.967158705,1.892497883
8565.73625,-1.376062974,0.2317274952,0.6400847572,1.535237909
8575.72325,0.9712812844,0.2241775703,-0.02473372221,0.9971231987
8585.711249999998,0.8944067708,0.09213048398,0.4092641652,0.987901136
8595.69925,0.3453773408,-0.03720174015,0.3915207893,0.5234099783
8605.68725,0.4155103071,-0.4078660959,0.2938588393,0.6521936713
8615.67525,0.4157194912,-0.9657068413,0.1380094922,1.06040512
8625.663250000001,0.2155684224,-1.053227965,-0.1348058027,1.083481193
8635.65125,0.6528828505,-1.124883839,-0.09947283268,1.304421141
8645.63925,0.8791575247,-1.007039055,-0.1570176208,1.34599411
8655.62725,0.592925355,-0.7972889042,-0.05508837283,0.9951204963
8665.61425,0.2098950152,-0.3302524942,0.2610927969,0.4704169172
8675.60225,-0.1826576614,-0.721469813,-0.4677959633,0.8790424197
8685.590250000001,-0.2352587749,-0.978232162,-1.121636295,1.506769004
8695.57825,0.3612911229,0.00915966332,0.261924271,0.4463401154
8705.56625,0.4583435006,-0.03891789794,0.2968830192,0.5474786703
8715.554250000001,0.2517205873,0.177217412,-0.0764535141,0.317197738
8725.54225,-0.2901623757,0.1960220575,-0.261573438,0.4370806731
8735.53025,-0.2167188621,0.567180503,0.06961928844,0.6111527088
8745.51825,0.0259869267,0.8380597848,0.2853335989,0.8856832311
8755.50625,0.04921689123,0.7754168093,0.09517629862,0.7827848098
8765.493250000001,0.1280481756,0.5744374824,0.1373388165,0.604348167
8775.48125,-0.1255936606,0.2395235878,-0.00206582129,0.2704617983
8785.46925,-0.6703736266,0.1994157815,-0.03638254523,0.7003507284
8795.45725,-0.1730158952,0.279207471,-0.002486236095,0.3284775384
8805.44525,0.8036562297,0.3446875155,-0.04973933995,0.8758691802
8815.43325,-0.1277572766,0.4928167838,0.4491988939,0.6789476787
8825.42125,0.3576926002,-0.05830901921,-0.06497952282,0.3681932595
8835.409249999999,0.4866839316,0.5925123954,-0.09262691259,0.7723418498
8845.39725,-1.383770335,-0.7399557853,0.04874355912,1.569946126
8855.38525,-0.2461210012,-0.9143454838,0.02156628549,0.9471369044
8865.37225,-0.07499814212,0.932436769,0.2284758586,0.9629456202
8875.36025,0.1995610848,-0.2985828048,0.0157804656,0.3594792636
8885.34825,1.166339721,-0.8503827918,-0.0586288619,1.444623335
8895.33625,1.583088907,-0.5913172245,-0.1042254496,1.693130087
8905.32425,-0.2686098312,0.2842881167,0.4500689596,0.5962659164
8915.312249999999,-0.9395288569,0.5768225616,0.531837008,1.2240463
8925.30025,0.3050976263,-0.8913343513,-0.3209969366,0.9952891643
8935.28825,0.293592791,-0.711713149,-0.3132423592,0.8311757389
8945.276249999999,-0.3859799677,-0.1975967127,-0.2195155853,0.4860165517
8955.26425,-0.2578154325,0.3034453493,-0.1095341367,0.412971675
8965.25125,-0.380765567,0.600972147,-0.01868185401,0.7116873963
8975.239249999999,-0.5081999311,0.8122361416,0.1306601268,0.9669885151
8985.22725,-0.4793485996,0.8660755491,0.0931613481,0.9942539784
8995.21525,-0.2550562777,0.7932484782,0.2228256941,0.8625242854
9005.203249999999,-0.0316772908,0.3074933767,0.1598652148,0.3480122331
9015.191250000002,0.2964450628,-0.03779815614,-0.1115216053,0.3189756171
9025.179250000001,0.5177224141,-0.3427117413,-0.1877353835,0.6486388903
9035.16725,0.3528170456,0.1255736339,-0.1838580948,0.4171958823
9045.15525,-0.1359702757,0.0767166388,0.04288815737,0.1619035286
9055.142249999999,-0.2841885678,-0.3018303484,0.1899479699,0.4560097944
9065.13025,-0.2028790873,-0.5274404866,0.2536662483,0.6194351915
9075.11825,-0.04611318916,-0.72837479,0.01897772312,0.7300797318
9085.10625,0.04746608868,-0.9465998948,0.01053083539,0.9478477139
9095.09425,0.02181815431,-1.534845577,-0.1392169422,1.541300858
9105.082250000001,0.1417660359,-1.752823344,-0.2667610878,1.778664882
9115.07025,0.06454200491,-1.530829124,-0.3010316187,1.561481192
9125.05825,0.1387725538,-0.9181309712,-0.1413143384,0.9392507888
9135.04625,0.107166599,-0.7065208215,0.09891968608,0.7214162844
9145.03425,0.145401396,-0.5042492598,0.1356939948,0.5420532651
9155.021250000002,0.04165015563,-1.26117308,0.3415990162,1.307280445
9165.009250000001,0.1879470527,-1.8011652,0.2114551985,1.823248056
9174.99725,0.1214615795,-2.069450657,0.0340307951,2.073291352
9184.98525,-0.09910255775,-2.101182911,-0.163033821,2.109827237
9194.973250000001,-0.2340374377,-1.922153447,-0.2364561385,1.950732914
9204.96125,-0.2945507111,-1.480239015,-0.1142534244,1.513579039
9214.94925,-0.2435011563,-0.8208701402,0.02796840191,0.8566812894
9224.93725,-0.08632946134,-0.007890232801,0.07991389632,0.1179036153
9234.92525,-0.1001291826,0.6724818403,0.03975989699,0.6810569199
9244.91325,-0.5583880448,0.6482568258,-1.262570565,1.525161812
9254.90025,0.3532627496,0.4663008302,-1.510376734,1.619712602
9264.88825,0.5722056001,0.8321026415,1.726192786,1.999888894
9274.87625,0.616483933,5.558070838,0.1985404533,5.595678886
9284.86425,-2.759873509,4.446170742,0.2350563151,5.23837642
9294.85225,-0.9568369076,1.243887541,-0.8216302782,1.771403228
9304.84025,2.345391288,0.5291391027,0.4556027645,2.447125327
9314.82825,1.602619776,-0.341021896,0.7213990617,1.790280058
9324.81625,0.2684316373,-0.4131934941,-0.2124901557,0.5365971242
9334.80425,0.2806638663,-0.4661359388,-0.08714690208,0.5510440107
9344.792249999999,-0.003897461593,-0.9496965802,0.06175302923,0.9517101561
9354.77925,-0.07044418439,-0.600340063,0.1627309352,0.6259807757
9364.76725,0.02525061607,0.1696008289,0.1011229169,0.199067524
9374.75525,0.07914425656,0.5209641105,0.1066982371,0.5376355007
9384.74325,0.1791082554,0.4462799639,0.03745667875,0.4823365796
9394.731249999999,0.04065349773,0.1970090675,-0.01423387706,0.2016627948
9404.71925,-0.04360034823,0.05451476097,-0.08503079474,0.1100140245
9414.70725,-0.1683504018,-0.1416774505,0.03393139243,0.2226335491
9424.695249999999,-0.1313109219,0.01209262669,0.09212989926,0.1608623889
9434.68325,-0.103354653,0.1123396307,0.04400263667,0.1588666389
9444.671250000001,-0.1864925578,0.1082752311,0.06247399092,0.2245128044
9454.65825,-0.3126842424,0.1421715403,0.06816508591,0.3501866092
9464.64625,-0.02050399259,-6.431937218e-05,0.05846981764,0.06196077327
9474.63425,-0.06360630423,-0.04540304482,0.09691818416,0.1245003327
9484.622249999999,-0.04249376267,1.005573158,0.1061825126,1.012056234
9494.61025,0.09064119816,1.237115881,-0.04717709005,1.241328807
9504.598250000001,0.01977996111,-0.6976728147,-0.2824906826,0.752953909
9514.5865,0.08850988805,-0.1738915157,0.139857797,0.2400676215
9524.5745,0.0835751304,1.017651751,0.02600490689,1.021408901
9534.5625,0.033286006,1.134724118,-0.06958771348,1.137343058
9544.5505,-0.2012756346,1.195900612,0.1026700902,1.217058463
9554.5375,-0.1552602401,0.6466845095,0.05396570742,0.6672472515
9564.5255,-0.1552777818,0.1719034624,0.113145377,0.2578058693
9574.513500000001,-0.1413859668,0.1088646305,0.04490778565,0.1840060015
9584.5015,0.3094096555,-0.1179436022,0.02102190971,0.3317935335
9594.4895,0.4126802547,-0.2251312512,0.1171168059,0.4844640535
9604.477499999999,0.09898532107,0.2606396377,0.2224386084,0.3566651778
9614.4655,-0.3039679442,0.6321021384,0.1992625844,0.7291469002
9624.4535,-0.3696712062,0.08553073168,0.08765034735,0.3894289282
9634.441499999999,-0.01013380945,-0.1262402165,0.004128718972,0.1267135852
9644.4295,-0.004043349624,-0.2912585825,-0.09876064181,0.3075736902
9654.4165,0.002039216459,-0.2830748194,-0.098546049,0.2997446173
9664.4045,0.2094846869,0.4452835983,0.0480623585,0.4944403981
9674.3925,-0.0397755383,0.8311659175,-0.01143539965,0.8321956767
9684.3805,-0.09531911686,0.6659937698,0.0850594461,0.6781360813
9694.368499999999,-0.06022295907,0.3203455567,0.2278724259,0.3977108535
9704.3565,-0.238403846,0.2036824948,0.1992251623,0.3715018408
9714.3445,0.08557502434,-0.3093457747,0.08932382047,0.3331615794
9724.332499999999,0.1467259365,-0.9776643974,-0.05476736069,0.9901291017
9734.320500000002,0.1641908388,-1.525459042,-0.1038120514,1.537777897
9744.308500000001,0.1856050967,-1.672002545,-0.08120145321,1.684231409
9754.2955,0.03309524059,-1.600074776,-0.08835259795,1.602853944
9764.2835,-0.03142834559,-1.291817168,-0.08368301153,1.294906245
9774.271499999999,0.1313736333,-1.352999509,-0.1008381575,1.363097589
9784.2595,0.07294094548,-1.543355615,-0.1058410352,1.548699215
9794.247500000001,0.1271129134,-1.844621122,-0.09242693782,1.851304274
9804.2355,0.2017649004,-1.855472385,-0.06730846882,1.86762343
9814.2235,0.3079690477,-1.36828647,0.007904850841,1.402538871
9824.211500000001,0.5092085758,-0.6712188417,-0.1209250975,0.8511468653
9834.1995,-0.09109698862,-0.9172252375,0.002176333666,0.9217404917
9844.1875,-0.5121175656,0.6438725835,-0.2619909292,0.8634092609
9854.1745,-0.873242189,1.331371243,-0.3241526788,1.624861922
9864.1625,-0.8604707006,1.289589379,-0.1184037781,1.554821548
9874.150500000002,-0.130413959,1.172130511,0.09698952019,1.18334471
9884.138500000001,0.2775690812,1.07806226,0.2455497283,1.139981359
9894.1265,0.2632352167,0.9025750387,0.1181622881,0.9475741692
9904.1145,0.3595660481,0.6277208197,-0.007517765164,0.723448469
9914.1025,0.2547257638,-0.2951329476,0.05669635713,0.3939583079
9924.0905,0.1602096158,-0.8090049702,0.1297766125,0.8348641398
9934.0785,0.3021107224,0.3445197004,0.103235516,0.4697044648
9944.0665,0.03691230297,0.8419902831,-0.02741408587,0.8432447374
9954.0535,0.003383198977,0.2715020102,0.05267113388,0.2765845909
9964.041500000001,0.1229929653,-0.006161211133,0.06587999403,0.1396617473
9974.0295,-0.009660184979,0.7872954279,0.1254660451,0.7972886168
9984.0175,-0.516666407,1.177616953,-0.1585098302,1.295704917
9994.0055,0.06495174855,0.1134424156,-0.03582179725,0.1355400769
10003.9935,0.1752027538,0.1245187962,0.2576803619,0.3355593904
10013.9815,-0.1405308115,-0.1678086573,-0.1112339222,0.2455231963
10023.9695,-0.07853950828,-0.3161601198,0.00588346839,0.3258224837
10033.9575,-0.1410918519,-0.002472202778,0.1029261982,0.1746620301
10043.9455,-0.1392374074,0.269280653,0.1064403749,0.3212922021
10053.9335,-0.06951871634,0.2501088023,0.008072081208,0.2597160438
10063.9205,-0.1171305469,0.3392215383,0.03018800497,0.360141823
10073.9085,-0.196119706,0.5233298939,0.05654666841,0.5617247037
10083.896499999999,-0.1270366073,0.4371103603,-0.0158155489,0.4554710729
10093.8845,-0.1707363582,0.4333628798,0.01816788375,0.4661377066
10103.8725,0.06679157495,0.4994451874,-0.007580915093,0.5039484895
10113.860499999999,0.1397928929,0.4864976978,0.0756103456,0.5117997531
10123.8485,0.1193758777,0.2750577021,-0.002226034999,0.2998537892
10133.8365,0.04664908648,0.1305677408,-0.0134567821,0.1393023948
10143.824499999999,0.1703820169,-0.2739917547,-0.07014787674,0.330185157
10153.8125,0.252793259,-0.255661903,-0.006585718989,0.3595981259
10163.7995,0.2520231807,0.2173275572,0.03749117732,0.334891832
10173.7875,0.03182522535,0.6194914484,0.08429521501,0.6260097307
10183.7755,-0.2215514396,0.7318813652,0.09455240071,0.7705034261
10193.7635,0.02195220172,0.36290627,0.1603914642,0.3973767504
10203.751499999998,-0.1298681214,0.8689857084,0.3079781109,0.9310490895
10213.739500000001,0.09251713112,1.627239186,0.3021507758,1.657637439
10223.7275,0.2754159902,-0.417183634,0.1166022509,0.5133149492
10233.7155,0.05561286807,-1.160616174,-0.1254455799,1.168699828
10243.7035,0.02543319538,-0.9033883864,-0.06607236743,0.9061583646
10253.6915,0.129499893,-0.4078748667,-0.03483654141,0.4293549974
10263.6785,0.1185575598,-0.3081307232,-0.05708519697,0.3350509772
10273.6665,-0.03375027493,-0.7138222396,-0.05158881426,0.7164793623
10283.6545,-0.02112569779,-1.056213554,-0.08434316218,1.059786363
10293.6425,-0.06191338912,-1.308742518,-0.08510973215,1.312967598
10303.630500000001,-0.3269957413,-1.289525059,-0.1765952682,1.342008563
10313.6185,-0.2243228737,-0.294985013,-0.03692809045,0.3724252857
10323.6065,-0.07383878544,0.2431617254,0.0006309145689,0.2541263249
10333.594500000001,-0.006546835005,0.5932737029,0.1825734615,0.6207653473
10343.5825,-0.1331640507,-0.05119120359,-0.08092429519,0.1640181249
10353.5705,-0.1151727529,-0.1848608923,0.04573984444,0.2225543661
10363.5585,-0.1070995022,-0.4316636789,0.1100931305,0.458175002
10373.5455,0.05026164249,-0.7771984559,0.09554818153,0.7846611546
10383.5335,-0.03346025303,-0.9183584279,0.03886644244,0.9197893188
10393.5215,-0.1226200591,-1.011377104,-0.01157748699,1.018849039
10403.5095,-0.2252261223,-0.9402223366,0.0294132489,0.967269346
10413.4975,-0.1417395772,-1.045024906,-0.01834563911,1.054752921
10423.4855,0.01197041988,-1.136741992,-0.05233316481,1.138008967
10433.4735,0.01698426113,-1.037118301,-0.06926670134,1.03956756
10443.4615,-0.1108054675,-0.7169926,-0.1216706175,0.7356357653
10453.449499999999,-0.1868486533,-0.5374175906,-0.1571591234,0.5902788121
10463.4375,-0.06568849772,-0.3648048609,-0.1201029789,0.3896438
10473.424500000001,-0.02449354783,-0.2856744915,-0.08192767739,0.2981979096
10483.4125,-0.1415372635,-0.1309595042,-0.07668740273,0.2075190267
10493.4005,0.05097894967,0.1764555198,0.06427317917,0.1945930249
10503.3885,0.6580487193,1.626782518,0.2997510785,1.780252844
10513.3765,-0.4910553101,2.266091934,-0.01629443586,2.318743945
10523.36413,-0.4642022645,2.001726451,-0.2501181579,2.070012468
10533.35212,0.01925605059,0.9146933931,0.02262229264,0.9151757028
10543.34013,0.08272246018,0.2051454681,0.1649745119,0.2759424905
10553.32813,0.1158868441,-0.2080106038,0.08668204844,0.2534007684
10563.31612,0.1056425223,-0.21359411,0.08940918982,0.2545128476
10573.30313,0.1768570773,-0.05417445302,0.08353858531,0.202958105
10583.29113,0.1952195272,0.04171929896,0.1077279317,0.2268401882
10593.27913,0.04977208436,0.03500903428,0.1265659064,0.1404344029
10603.26713,-0.005917966962,0.141117872,0.110919342,0.1795894668
10613.255130000001,-0.07732562631,0.2070048827,0.02437061012,0.2223155428
10623.24313,-0.1056796521,0.2199839473,0.04849680662,0.2488233634
10633.23113,-0.1036571002,0.2014430112,0.1244217324,0.2584663395
10643.21912,0.007543639094,0.3459832585,0.1601271701,0.3813161841
10653.20713,0.09160423458,1.109575244,0.1055784953,1.118344927
10663.19513,-0.28255661,0.03628840506,-0.1406483406,0.3177059047
10673.18312,-0.002147389948,0.113588596,0.07565303028,0.1364930819
10683.170119999999,-0.07146496207,0.349936561,-0.03824079037,0.3592007733
10693.15813,0.1056051001,0.2190349442,-0.02068394065,0.2440421466
10703.146130000001,0.2346623589,0.1595623291,-0.02021148562,0.2844908851
10713.13413,-0.0007735866308,0.475934118,0.0242589283,0.4765525981
10723.12213,0.02553771436,0.4025398672,-0.0153547883,0.4036412876
10733.110130000001,0.02563010037,0.2248687112,0.1227926981,0.2574895844
10743.09813,0.09754295915,0.9261755705,0.1962413281,0.9517491661
10753.08613,-0.1256721595,1.007837784,0.09974005044,1.020528573
10763.074129999999,-0.02892544493,0.6340802515,0.06832413018,0.6384063231
10773.06213,-0.1967946209,0.6501285195,0.0849863559,0.6845567145
10783.04913,-0.03874101967,0.1876412433,-0.007062851787,0.1917289406
10793.037119999999,0.2802668403,-0.1003487456,-0.03833142221,0.3001477477
10803.02513,0.1180133303,0.04296592534,0.04853130519,0.1346421347
10813.01313,-0.1699165785,-0.08927470386,0.1031735355,0.2179137325
10823.00112,-0.2795705831,-0.01737324715,0.09095519364,0.2945070252
10832.98913,-0.368575438,0.2063371307,0.07590972304,0.4291679753
10842.97713,-0.1413023517,0.1834207231,-0.0110220015,0.2317994839
10852.96512,0.0230997178,0.128627927,0.0216288507,0.1324633827
10862.95313,0.06488976806,-0.689567112,-0.1555417836,0.7098638816
10872.94113,0.03402436316,-1.342173682,-0.1080430967,1.346945121
10882.92913,-0.08794124633,-1.293149456,-0.01882043302,1.296272883
10892.91613,-0.1581551966,-0.8838303271,0.04710458457,0.8991039735
10902.904120000001,-0.1511128101,0.05337952405,0.007162254453,0.1604236667
10912.89213,-0.06457811147,0.1914843258,-0.1403483784,0.2460370843
10922.88013,0.2219679075,-0.0372453019,-0.107280035,0.2493310458
10932.868120000001,0.2696452269,-0.1932835141,-0.02592187643,0.3327747119
10942.856129999998,0.2347051898,-0.6304640409,-0.03106976509,0.6734513816
10952.844130000001,0.06421792299,-0.8012565324,0.09561542451,0.8094926076
10962.83212,-0.1531450099,1.35843742,0.2540971881,1.390457118
10972.82013,-0.08323833078,-0.9967225197,-0.1471603847,1.010960227
10982.808130000001,0.01521635547,0.9155602428,0.1174805027,0.92319216
10992.795129999999,0.3611059123,0.9489589539,-0.01149854958,1.015407698
11002.78313,0.4675379549,0.2137385362,-0.1020011687,0.5240993604
11012.77112,0.3267315933,-0.1398729998,0.005598124266,0.3554565081
11022.75913,0.003847467899,-0.3759768435,-0.117448343,0.3939130655
11032.74713,-0.2978124341,-0.5880790365,-0.1698048967,0.680707648
11042.73512,-0.27405929,-0.4498897424,-0.1357173836,0.5439930909
11052.72313,-0.1102470584,0.1584566206,-0.02554531574,0.194718971
11062.71113,0.2436716026,0.3760344386,0.02869111776,0.4489999211
11072.69912,0.06776382074,0.2320748198,0.1104556578,0.2658027647
11082.68713,-0.2340321752,-0.2583218014,0.1121308851,0.3661619144
11092.67513,-0.3409121145,-0.3421746746,0.0393453294,0.4846159641
11102.66213,-0.2981264296,-0.2061804253,0.0581733638,0.3671156168
11112.65013,-0.8044223611,0.8670596355,0.2336278403,1.205599317
11122.63812,0.7202913067,1.232931029,-0.09658430815,1.431176794
11132.62613,0.4974220508,-1.320676978,-0.1058158922,1.415207893
11142.61413,-0.3938478349,0.04738875926,0.4152043515,0.5742442556
11152.60212,0.3123015422,0.04518962145,0.2226257193,0.3861820374
11162.59013,-0.3400834179,-0.8145691806,0.1878634375,0.9024812199
11172.57813,0.06283096343,-1.288873095,-0.2662816161,1.317591547
11182.566120000001,0.1075697646,-0.7101016563,-0.2556776905,0.7623560179
11192.55413,0.1332405031,-0.2394271088,-0.1906835496,0.3338241875
11202.54113,0.2489071995,-0.04005664319,-0.178970992,0.3091762355
11212.52913,0.3177660576,-0.1252532065,-0.08953081191,0.3530997017
11222.51713,0.1715868357,-0.3920727664,0.1083331186,0.4414738508
11232.505120000002,0.1290100425,-0.322865999,0.09720528245,0.3610192673
11242.493129999999,0.1400234194,0.1078501385,0.05352073431,0.1846691078
11252.48113,-0.2721057352,0.1869091719,0.06501051307,0.3364564407
11262.46912,-0.4470843945,0.3909480545,0.02868877888,0.5945989263
11272.457129999999,-0.1511145642,1.189767175,-0.1290954119,1.20625336
11282.44513,-0.08844951555,0.3031860253,-0.1782704955,0.3626643797
11292.43312,0.1351193596,0.2448860693,0.04855352461,0.2838729875
11302.42113,0.113318747,0.9622622466,0.3038961697,1.015451945
11312.40813,-0.6158527261,2.366455298,0.9352399242,2.618025778
11322.39613,0.3957443793,0.2402018648,-0.1749796826,0.494902454
11332.384129999999,-0.2951563364,-0.5346653062,-0.2559361374,0.6621839314
11342.37213,-0.02571181521,0.2034187853,-0.1836861867,0.2752833356
11352.36013,0.1635360968,0.5634186968,-0.2026621556,0.620690448
11362.34813,0.4339264052,0.4658561495,-0.09465121865,0.6436403734
11372.336130000002,-0.240871371,0.9815030944,0.569761464,1.160170448
11382.32413,0.6637864459,-0.1296292627,0.09336307704,0.6827392296
11392.31213,-0.1406269982,-2.199994132,0.0679504931,2.205531093
11402.30012,-0.1786341923,-0.705358395,0.4860620803,0.8750411338
11412.28813,0.3072866777,0.4657807204,0.7248150051,0.9147314214
11422.27513,0.2181107917,1.082749095,0.3584588778,1.161210871
11432.263130000001,0.2068185027,0.4879940003,-0.0158781141,0.5302491414
11442.251119999999,-0.459731922,-0.8139867979,-0.2866989237,0.9778160462
11452.23913,-0.1543015891,-1.933117561,-0.3764215243,1.97546087
11462.227130000001,0.1791056241,-2.701516542,-0.3522924042,2.730271121
11472.21513,0.3123203994,-2.400644845,-0.2931402165,2.438559183
11482.20313,0.0352287434,-1.555893214,0.2653858227,1.578757231
11492.19113,-0.1577729349,-1.58579032,0.1628034407,1.601913918
11502.17913,-0.2971538915,-1.642148124,-0.0918135649,1.671340966
11512.16713,-0.4178436385,-1.612468826,-0.2181777424,1.67995552
11522.15479,-0.2710077743,-1.599932104,-0.3644399947,1.663142946
11532.14279,0.0321417059,-1.765425556,-0.241669516,1.782179743
11542.13079,0.06289586753,-1.963904906,-0.146915971,1.970396577
11552.11879,0.1736440323,-1.423344729,-0.0800706017,1.436131529
11562.10679,0.3714915906,-0.2299902874,-0.1001242125,0.4482481368
11572.09479,0.4688997714,1.158396571,-0.1259016627,1.256025812
11582.082789999999,-0.07256774694,2.304666893,-0.26234644,2.320685507
11592.07079,-0.6609039147,2.310740981,-0.3665122479,2.431182653
11602.05879,-0.4176332849,1.774497511,-0.4750991356,1.883873182
11612.04679,-0.261882171,1.712900018,-0.1488718647,1.739187044
11622.034790000002,-0.4401690388,1.713922403,0.1189440608,1.773535023
11632.02279,-0.4845032126,1.279042171,0.1929475915,1.38127514
11642.00979,-0.1977357303,0.6284596154,0.3471053392,0.7446764557
11651.99779,-0.2126250802,0.3553414348,0.3479023147,0.5408446917
11661.985789999999,-0.2473870696,0.2355223382,0.3850309646,0.5147037766
11671.97379,0.03270186916,-0.07764196068,0.1423218137,0.1653879831
11681.961790000001,0.06375365406,-0.1912004435,0.05781200588,0.2096768133
11691.94979,0.1215641981,-0.5539453304,0.03618490934,0.5682804158
11701.93779,0.2140804522,-0.5911423928,0.06644191146,0.6322138057
11711.925790000001,0.2430067742,-0.5802922994,0.09747016132,0.6366253823
11721.91379,0.1600442858,-0.4410832509,0.04238646626,0.4711318501
11731.90179,0.2070007896,-0.2417630714,0.06990989506,0.3258620921
11741.88879,0.1535044675,0.04626521677,0.004950252771,0.1604013616
11751.87679,0.1180523604,0.3671890631,-0.1030425578,0.3992266732
11761.864790000001,-0.09725249872,0.8273003232,-0.07566940248,0.8364267642
11771.85279,-0.1422493082,0.9426182333,-0.09032837212,0.957561076
11781.84079,-0.06930324644,0.5315317833,-0.07166172087,0.5407997586
11791.82879,-0.06124607563,0.2444647774,0.005290560722,0.2520755823
11801.81679,-0.001260659695,0.2914056399,0.1348104805,0.3210805225
11811.80479,-0.07312162444,0.3656120691,0.1766361988,0.4125764217
11821.79279,-0.09966549844,0.418493118,0.137946927,0.4517732352
11831.78079,0.001890697181,0.3607384148,0.08966822147,0.3717205518
11841.76879,0.1094829735,0.2713236701,0.01113602221,0.2927918484
11851.75679,0.1885928777,0.2023493296,-0.02619318724,0.2778463744
11861.74379,0.146373788,0.05139965683,-0.0167429173,0.1560369694
11871.73179,0.07586645365,-0.09489183158,0.06776279747,0.139111377
11881.71979,0.04881533369,-0.1087497327,0.1466522616,0.1889876372
11891.70779,0.001563253105,-0.03822441816,0.1609077734,0.1653930514
11901.69579,-0.08499878123,0.06734267503,0.09241056561,0.1424764589
11911.68379,0.05076114088,0.1097282642,0.03043124914,0.1246717543
11921.67179,0.1304646836,0.1202903822,-0.004809334874,0.177521659
11931.65979,0.1029050021,-0.09397031039,0.01423738539,0.1400805548
11941.647789999999,0.0887876308,-0.2642754364,0.01240662217,0.2790675079
11951.635789999998,0.05040636107,-0.2339994308,0.04921601415,0.2443742026
11961.62279,0.02175953597,-0.1479009345,0.02970444024,0.1524156081
11971.610789999999,0.03688014328,0.05825844079,-0.001661193967,0.06897064925
11981.59879,-0.1325341594,0.242152496,0.04521944225,0.2797283194
11991.58679,-0.08964804858,0.2979381493,-0.06467546761,0.31778425
12001.574789999999,-0.045170618,0.5184331432,-0.000568934083,0.5203975715
12011.56279,-0.02861685812,0.5872016618,0.008553891778,0.5879607854
12021.55079,0.1048247892,0.407437495,-0.0311188817,0.4218553467
12031.53879,0.06795955628,0.1578528956,-0.03447693765,0.1752846176
12041.52679,-0.09692929387,0.3662540933,0.03038388669,0.3800796357
12051.514790000001,0.09716420576,0.3570046753,0.09784847617,0.3827107855
12061.50279,0.2083396558,0.4550741762,0.07573547602,0.5061953974
12071.48979,0.2444641927,0.6648368981,0.1277979147,0.7197938244
12081.477789999999,0.03087856114,0.2695768145,0.09258130431,0.2866992193
12091.46579,0.4255938305,0.5405180767,0.1177050358,0.6979572876
12101.453790000001,0.2013560338,0.5364054376,0.3184873116,0.6555220923
12111.44179,-0.6727519816,-1.242395624,-0.1679390502,1.42279501
12121.42979,0.0217026718,-0.09902230471,0.001906777024,0.1013906238
12131.41779,0.3570496988,0.3582624114,0.1268220145,0.5214597455
12141.40579,0.2022436412,-0.06033741832,0.0467555058,0.2161693127
12151.39379,0.4439498484,-0.1984872437,-0.02565290451,0.4869771302
12161.38179,0.3571964639,-0.5230100513,-0.0502234894,0.6353355227
12171.36979,0.2351874389,-1.023222978,-0.193744567,1.067630719
12181.35679,-0.1069306639,-1.105405594,-0.07870703101,1.113351019
12191.344790000001,-0.3272968729,-0.8493045652,-0.1824074006,0.928285488
12201.33279,-0.5617871775,-0.8928090191,-0.3436081195,1.109404938
12211.32079,-0.4914798179,-0.2985176083,-0.1498249608,0.5942328608
12221.308790000001,-0.4110352868,0.02623470247,-0.005327982903,0.4119061228
12231.29679,-0.3904291141,0.2826143512,0.1137377,0.4952191727
12241.28479,-0.4283706732,0.4172538006,0.1424937218,0.6147411069
12251.272789999999,-0.002942757457,-0.004895581305,-0.1409670138,0.1410826904
12261.26079,0.0748544468,0.2009158847,0.02967286527,0.2164505945
12271.24879,0.2725224955,0.1149071431,-0.0146794349,0.2961210022
12281.236789999999,0.04501142755,0.1206970561,-0.03967452765,0.1347882639
12291.22479,-0.3907545117,0.4500835776,0.02320175171,0.5964919417
12301.21179,-0.4701626238,0.673718234,-0.03795369208,0.822429106
12311.19979,0.01040190428,0.8903251219,-0.08317547321,0.8942623673
12321.18779,0.116552842,3.992584974,1.039537295,4.127342623
12331.17579,0.5289151543,0.9623853305,0.3788036799,1.161649255
12341.163789999999,-0.1439683896,-1.450333723,-0.4741442853,1.532647255
12351.15179,-0.07105609551,0.7258245268,0.501567142,0.8851213535
12361.13979,0.360079726,0.9156634462,0.5028991377,1.104990723
12371.127789999999,0.6100476104,0.08494337887,-0.1528321838,0.6346110155
12381.115790000002,-0.1404613759,-1.091838592,-0.3346572018,1.150580876
12391.103790000001,-0.4526423192,-2.374110765,-0.4404099441,2.456674157
12401.09179,-0.6530737621,-1.987582621,-0.4534521586,2.140702893
12411.07879,-0.3796629283,-0.9350159758,-0.1556031793,1.021083328
12421.066789999999,-0.1437789398,-0.5809667757,-0.04705195963,0.6003404575
12431.05479,-0.2740303463,-0.3194801688,0.04528376162,0.423332999
12441.04279,-0.03453014731,-0.008395724595,-0.0046771878,0.03584264709
12451.03079,0.4641380914,-0.1636542106,-0.1046470338,0.5031479605
12461.01879,0.2001437598,-0.3855385029,-0.2430389339,0.4977603693
12471.006790000001,0.2246457861,-1.00344711,-0.1052358484,1.033656817
12480.99479,0.4801416282,-1.399968731,0.3305191272,1.516473318
12490.98279,0.02990280703,-0.5612663367,0.2448083013,0.6130621363
12500.97079,0.2077572732,-0.471119813,0.1700534034,0.5422500556
12510.95879,0.3315388817,-0.8809415102,0.2400340497,0.9713868022
12520.94529,0.324694131,-1.289857181,0.1998163158,1.345022077
12530.93329,0.277059204,-1.689940048,0.1465054965,1.718756245
12540.92129,0.1818497224,-1.8727129,0.001738377213,1.881522243
12550.90929,0.3560438316,-1.878982869,-0.07323169827,1.913819928
12560.897289999999,0.8566616781,-1.840433346,-0.160679732,2.036389479
12570.88529,1.148737263,-1.825622349,-0.1610130233,2.16296543
12580.87329,1.138335797,-1.440298731,-0.1243223298,1.84003393
12590.861289999999,0.557629661,-1.080452309,-0.1782114387,1.228856113
12600.84929,-0.01807462066,-0.8223562101,-0.2647835594,0.8641219598
12610.83729,-0.3116595179,-0.355326232,-0.2620991027,0.5404482639
12620.82529,-0.5224051568,0.3397939807,-0.3073629838,0.6948662468
12630.81229,-0.4809568763,0.9048879048,-0.1357407725,1.033715239
12640.80029,-0.8739295292,0.7015875256,-0.1135739779,1.126444373
12650.788289999999,-0.4895432201,1.67018143,-0.09658138454,1.743125508
12660.77629,-0.4424769348,2.670681543,0.1948865283,2.714094048
12670.76429,-0.9456821743,1.337585079,-0.4776584619,1.706342939
12680.752289999999,-0.6818987811,0.5990495825,-0.3313096708,0.9662362278
12690.740290000002,-0.6244647977,0.3426713955,0.134435674,0.7248813139
12700.728290000001,-0.5058999288,0.2924660325,0.1389140564,0.6006398532
12710.71629,-0.4512500972,0.3652510035,0.1048364836,0.5899369746
12720.70429,-0.3988684005,0.5509401539,0.1774828756,0.7029446815
12730.69229,-0.3222166657,0.6650216702,0.2246184504,0.7723540961
12740.68029,-0.2689596409,0.3980190924,0.1536028469,0.5043335413
12750.667290000001,-0.3084140208,0.3886267099,0.1660065454,0.5231711966
12760.65529,-0.4607746267,0.57619077,0.1659410566,0.7562046643
12770.64329,-0.3437630707,0.4940391442,0.1351379246,0.6168549128
12780.631290000001,-0.004254434109,0.3160393748,0.1874517936,0.3674740284
12790.61929,0.1490987366,0.01889995515,0.2121469241,0.2599883824
12800.60729,0.06387322962,0.3503137064,0.1805175805,0.3992318615
12810.59529,0.2179891697,0.7310153925,0.006163550019,0.7628504254
12820.58329,-0.1173229203,0.2921397579,-0.1018608356,0.3308865902
12830.57129,-0.02080497801,-0.2018523163,0.01334451556,0.2033599783
12840.55929,0.1038243306,-0.4782227182,0.04952474713,0.4918629488
12850.54729,-0.3437978616,-0.707325106,0.07904500008,0.7904137443
12860.53429,-0.5353584936,-0.7326605067,0.03062830031,0.9079307394
12870.52229,-0.5768026811,-0.4071176523,0.01442215741,0.706154455
12880.51029,-0.5882798883,0.0384083131,0.05753952563,0.5923337088
12890.49829,-0.3141211957,-0.07967708409,-0.1424334955,0.3539885082
12900.48629,-0.01417511255,-0.1146837795,-0.1616176254,0.1986795408
12910.47429,-0.0007361644506,-0.1434164125,-0.1191615772,0.1864625721
12920.46229,-0.04782116085,-0.1104960036,-0.1303239119,0.1774275972
12930.450289999999,0.1029066101,0.07253032476,0.05899021983,0.1390333213
12940.43829,0.3561544901,0.4139714661,0.1838575101,0.5762134844
12950.42629,0.3067174512,0.4630898318,0.09948569655,0.5642917605
12960.414289999999,0.2271058559,0.8894199729,0.05498780072,0.9196024229
12970.40129,-0.11270859,0.8957832053,-0.09374606967,0.9076998969
12980.38929,-0.2767513481,1.085821222,-0.1052159679,1.125464098
12990.37729,-0.4686148658,1.016932251,-0.1158263254,1.125685051
13000.36529,-0.2826488498,0.8898310322,-0.06929710686,0.9362113688
13010.35329,-0.07081826001,0.876881496,-0.04347697198,0.8808102129
13020.341289999998,-0.03712660342,1.172414685,0.06209158301,1.174644603
13030.32929,-0.2197570753,1.405994286,0.1358056766,1.429530093
13040.31729,-0.3067080957,1.554482281,0.2805166626,1.609091239
13050.30529,-0.07997412264,0.9459610865,0.2042748177,0.9710645903
13060.293290000001,0.5497794816,0.06212461978,0.1824734741,0.5825920661
13070.28129,1.107348039,-0.7597132346,0.1988065016,1.357537441
13080.26829,0.5018688583,-0.3050086024,0.0948693198,0.5948972906
13090.25629,0.2290947863,-1.027082725,-0.009992306828,1.052370273
13100.244289999999,-0.3417592299,-1.759846435,-0.02665453255,1.792922004
13110.23229,-1.04438756,-0.5027868712,-0.1286469305,1.166228985
13120.220290000001,-0.5454668677,-0.6192359251,-0.26030927,0.8653023464
13130.20829,-0.04711189359,-0.3892789668,-0.2775392604,0.4804015878
13140.19629,0.0461278072,-0.474921965,-0.2524430108,0.5398204527
13150.184290000001,-0.1199575295,-0.9213498634,0.1158257407,0.9363177783
13160.17229,0.5527187307,-1.003752042,-0.09451263964,1.149760321
13170.16029,0.005592715591,-0.8130848649,0.3144036162,0.8717728545
13180.14829,-0.05407431945,-0.7312285236,0.5728306675,0.9304591121
13190.13529,0.1111276491,-0.8637819788,0.5255401415,1.017182924
13200.123290000001,0.2178856739,-0.8196583048,0.3355605966,0.9120936451
13210.11129,0.2744932996,-0.901157966,0.2032907313,0.9637216261
13220.09929,-0.06917709276,-0.9247763318,-0.02237027764,0.9276298633
13230.08729,-0.3461640836,-0.8809686998,-0.2414555079,0.9768501344
13240.07529,-0.4136799824,-0.63214073,-0.3584237945,0.8361821852
13250.06329,-0.3677593128,-0.65716272,-0.3797421581,0.843394249
13260.05129,-0.1341051601,-0.3057763419,-0.2964754683,0.4465210728
13270.03929,-0.1757366046,0.2608486757,-0.0979198122,0.3294141397
13280.02729,-0.3011077787,0.5073167092,0.01292234659,0.5900873875
13290.01529,-0.07516040236,0.4462738243,-0.03341449857,0.4537906357
13300.003289999999,-0.03458554968,0.2580121914,-0.1232914656,0.2880403386
13309.99129,0.3091215339,0.3944593075,-0.2366157675,0.5542032925
13319.97829,0.006450063586,0.5784051105,-0.3472363168,0.6746607554
13329.96629,0.1084006539,0.5583593935,-0.3823377371,0.6853452117
13339.95429,0.2987570518,0.5548434627,-0.3487337887,0.7202237843
13349.942289999999,-0.4713089705,-0.007936718166,-0.249271481,0.5332273515
13359.93029,-1.222136191,-0.6956064087,-0.0952651763,1.409454008
13369.91829,-0.668204602,-1.08625567,-0.04338575542,1.276060773
13379.906289999999,0.1691628724,-1.097854207,-0.06431761801,1.112670973
13389.89429,0.5974126545,-0.7842475668,-0.05258167148,0.9872745099
13399.882290000001,0.2555595767,-0.5127818093,0.02522371888,0.5734911657
13409.87029,-0.1078217795,-0.02985325187,0.2138402778,0.2413388017
13419.85829,-0.2237653416,0.5523142496,0.2525663871,0.6472339131
13429.84529,-0.1383062384,0.594428528,0.1223997653,0.6224593103
13439.833289999999,0.05290736139,0.7084889942,-0.04326004028,0.711777546
13449.82129,-0.1737292555,0.6177533635,-0.2130152357,0.6761483292
13459.809290000001,-0.6336332318,0.592341072,-0.2175813264,0.8942598345
13469.79729,-0.6834249043,1.045367846,-0.08345730901,1.251730264
13479.78529,-1.001026655,1.103220197,0.2347984529,1.508071444
13489.773290000001,-0.2697051609,0.9009465891,0.4597034168,1.046791699
13499.76129,0.4597034168,0.6110422218,0.5784790778,0.9588210843
13509.74929,0.7923035681,0.564627901,0.6594203299,1.175323267
13519.73725,0.7702738908,0.2195027214,0.6619100744,1.039051615
13529.72525,0.7134848553,-0.07640293568,0.5386753267,0.8972564599
13539.71325,0.5349474344,-0.1348677832,0.1260449195,0.5659022868
13549.700250000002,-0.4405698654,-0.160662775,-0.1229137355,0.4847908002
13559.688250000001,0.408367787,0.1277815425,-0.3719916737,0.5669834013
13569.67625,0.7745631158,0.3507224268,-0.255661903,0.8878723161
13579.66425,0.7973976624,-0.006942691505,-0.2743355709,0.843297835
13589.652250000001,0.5135656285,-0.4466448301,-0.2563653231,0.7272994142
13599.64025,0.1362354469,-0.6059586525,-0.2340710592,0.6637282925
13609.62825,-0.09206294864,-0.5623992348,-0.1709164524,0.5949629564
13619.61625,-0.112054579,-0.3604866922,-0.06822355807,0.3836161334
13629.60425,-0.2428629327,0.1227503058,0.006707925797,0.2722040373
13639.59225,0.09186706692,0.5350877675,0.09268596947,0.550771428
13649.580249999999,0.6870194802,0.4631108817,0.1867664999,0.8493227775
13659.56825,1.007265634,0.2824541375,0.2440779841,1.074215276
13669.55525,1.075383358,0.150792675,0.2384324974,1.111772392
13679.54325,1.035610889,0.1017386287,0.2127164429,1.062115317
13689.53125,1.14541546,0.4652100322,0.0413000536,1.236973178
13699.51925,0.9449167737,0.449416995,-0.03947221398,1.047091878
13709.50725,0.9411040968,0.3966321328,0.01785856605,1.021426893
13719.49525,0.9790200743,0.4696735042,-0.05187825143,1.087090088
13729.48325,0.5388185835,0.1735453606,-0.04983640373,0.5682667729
13739.471249999999,-0.4291976157,-0.4643042985,-0.286368556,0.694115282
13749.45925,-0.6716459808,-0.3721428242,-0.01560563385,0.7680118104
13759.44725,-0.7225556409,-0.4279805177,0.09405714154,0.8450448057
13769.43525,-0.1866934097,-0.2937082735,0.02169492424,0.3486970732
13779.42325,0.1176146963,-0.08853736997,-0.07915551245,0.1671456784
13789.410249999999,-0.6830658853,0.545473592,0.1019912285,0.880069687
13799.39825,-0.9897020602,0.3610860318,0.06618346453,1.05559156
13809.38625,-1.632731475,0.1292626423,0.1684805024,1.646483095
13819.374249999999,-1.093698884,-0.1870074052,0.2250622541,1.132166965
13829.36225,0.2804630144,-0.5383750722,-0.02244570673,0.6074627812
13839.350250000001,-0.06961168706,-0.4049813721,0.08571082592,0.4197642724
13849.33825,-0.1240228061,-0.6698856765,0.2976566058,0.7434567446
13859.32625,-0.4159082101,-1.170561118,0.3244918174,1.283934543
13869.314250000001,-0.1228203262,-1.651226511,0.2325694942,1.672041385
13879.30225,-0.3972595391,-2.058309372,0.1644459236,2.102735141
13889.29025,-0.7371333343,-2.009743276,0.03023419797,2.14087545
13899.27825,-0.7601982611,-1.940011721,-0.08529041111,2.085382777
13909.26525,-0.7736535814,-1.7796913,-0.145708521,1.946040072
13919.25325,-0.9442697793,-1.734038579,-0.1624894452,1.981145636
13929.241250000001,-1.153107764,-1.410161597,-0.2538732398,1.839202236
13939.22925,-1.282942849,-1.017660814,-0.3432175255,1.673133036
13949.21725,-0.9669145837,-0.9566807869,-0.4150909156,1.422133049
13959.20525,-0.5399430031,-0.6044515327,-0.4432142687,0.9237634924
13969.19325,0.1346578681,0.6952900743,-0.3988502741,0.8127992188
13979.18125,0.3779458934,2.060580431,-0.3067911261,2.11729913
13989.169249999999,0.1972330159,3.207158024,-0.2207201117,3.220788851
13999.15725,-0.4531472263,3.619055775,-0.1289369524,3.649593382
14009.14525,-1.028902671,3.908743211,0.02968748331,4.042003902
14019.133249999999,0.02963895142,4.214116972,0.1467382157,4.216775122
14029.12125,0.520869678,3.345659267,0.2078398651,3.392335267
14039.10825,0.2348373368,2.878625196,0.2711809981,2.900891368
14049.09625,-0.3851598957,2.711766127,0.3318967313,2.75901778
14059.08425,-0.8093367997,2.431376056,0.3298671627,2.583684951
14069.07225,-0.5736299819,1.774868225,0.3589161301,1.899481339
14079.060249999999,0.4547493634,1.089400011,0.3503370953,1.231391671
14089.04825,1.662996079,0.6891779798,0.3208916867,1.828522278
14099.03625,1.944386023,-0.202808336,0.3468287659,1.985461765
14109.024249999999,1.497724528,-1.228508487,0.38494618,1.974992513
14119.012250000002,1.431394299,-1.351895555,0.3913102895,2.007395071
14129.000250000001,0.2415151495,-2.010703389,0.1732705414,2.032555132
14138.98825,-0.4024822721,-1.992598363,0.2315573412,2.045986074
14148.97525,0.0007835268974,-3.262002568,-0.1512914425,3.265509221
14158.963249999999,-0.5814421543,-0.5734800008,0.04312847793,0.817810709
14168.95125,0.09105021089,-0.5277167675,0.1039564776,0.5455108403
14178.939250000001,0.2977820286,-1.021988923,-0.2212171251,1.087231582
14188.92725,-0.01422189027,-1.224279488,0.02075703084,1.224538028
14198.91525,-0.009415479004,-1.476186894,0.0390523839,1.476733384
14208.903250000001,-0.1927705671,-1.6273611,0.05276293516,1.639587926
14218.89125,-0.03609983236,-1.648768049,-0.06234535217,1.650341243
14228.87925,0.941793045,-1.461660072,-0.1663965547,1.746743289
14238.86725,0.5791436139,-1.46209452,-0.1064438832,1.576216359
14248.85525,-0.3467372569,-1.096699382,-0.09720469773,1.154307158
14258.84325,-0.8550672886,-1.00765272,-0.1423387706,1.329196899
14268.83025,-0.7048789233,-1.203131571,-0.1042067385,1.39829858
14278.81825,-0.1887368654,-1.303006108,-0.1823559451,1.329172754
14288.80625,-0.08380799577,-1.511499984,-0.1769817692,1.524132057
14298.79425,-0.1129699606,-1.293783879,-0.1014100152,1.302659944
14308.78225,-0.2050217995,-1.19981123,0.04858919263,1.218171513
14318.77025,-0.5891283193,-1.227155441,-0.03661234081,1.361735333
14328.75825,-1.089190096,-1.483009133,-0.1728764391,1.848117263
14338.74625,-1.029842611,-1.078720948,-0.312715525,1.523812878
14348.73425,-0.7233777595,-0.8977627802,-0.3917494154,1.217670315
14358.722249999999,-0.3379825133,-0.5130335319,-0.3266447622,0.6957962236
14368.71025,0.5420421535,0.3799339467,-0.07322526634,0.6659740533
14378.69825,0.736370565,0.6194031554,0.03546687126,0.962891363
14388.686249999999,0.01536531329,0.6835514966,0.06348438978,0.686665136
14398.67425,-1.061133986,0.8698519734,0.1372259653,1.378941172
14408.66125,-0.8339866143,1.40681085,0.1970453203,1.647263579
14418.64925,-0.4027070975,1.989973255,0.02349001944,2.030447818
14428.63725,0.3326513144,2.149600196,0.035307827,2.175473406
14438.62525,0.4215976971,1.789634491,0.06915969729,1.839923719
14448.613249999999,-0.4758101571,1.025063682,-0.1167788368,1.136128581
14458.60125,-0.04873449594,1.391269828,-0.005819149017,1.392135283
14468.58925,-0.5899212018,0.8828974038,-0.01358834445,1.061931963
14478.57725,-0.8417423612,1.141078287,0.01942211151,1.418085709
14488.565250000001,-0.6876480559,1.328499383,0.05061291397,1.496773906
14498.55325,-0.8342400911,0.713797389,0.03494763851,1.098491957
14508.54125,-0.3431955984,0.4831691703,0.1300748205,0.6067578799
14518.52925,-0.05609672517,0.297097612,0.1916226125,0.3579567841
14528.51637,-0.2698121649,0.1623821488,0.2424916345,0.3974528392
14538.504379999998,-0.5737650526,0.05365522027,0.2333606225,0.62172534
14548.492380000002,-0.7260879439,-0.280275465,0.08570556343,0.7830092478
14558.48037,-0.7673879975,-0.3587757969,0.05212441921,0.8487174832
14568.46838,-0.152034916,-0.1919573656,0.1084073782,0.2677954546
14578.45638,-0.04164416224,-0.06132676721,0.1852204961,0.1995039869
14588.44437,-0.1002168909,0.1242916319,0.3753719491,0.4079165786
14598.43238,0.1869243747,0.5840877271,0.1830751526,0.6400122704
14608.42038,-0.05235304534,0.8682051051,0.03363669276,0.8704322908
14618.40837,-0.4335412198,1.078532668,-0.0489815408,1.163438824
14628.39638,-0.5587713298,1.307299133,-0.202119534,1.436004432
14638.38438,-0.3650554141,1.668509418,-0.1406115031,1.713756321
14648.372370000001,0.099579252,1.808370724,-0.06520990312,1.812283927
14658.35938,0.4798801115,1.468537274,-0.2157242507,1.55994346
14668.34738,0.2900221887,0.7558499792,-0.3754766142,0.8924151214
14678.33538,0.1876874363,0.2065862221,-0.3052609098,0.4136286547
14688.32338,0.4834153381,-0.1712567604,-0.07779486537,0.5187208384
14698.311370000001,0.9728188097,-0.4925595063,0.1195112407,1.096938576
14708.29938,0.9938047591,-0.5609768996,0.229073444,1.163966333
14718.28738,0.6465199104,-0.3779198733,0.2731281209,0.797126336
14728.275370000001,0.6774680534,-0.6640457699,0.3128827554,0.998907086
14738.263379999999,0.6590238887,-0.7557143238,0.3359365726,1.057482863
14748.25138,-0.2854943973,-0.9478050059,0.5527179998,1.133727731
14758.23937,0.3396893156,-0.9287313884,0.1946555632,1.00787976
14768.22738,1.031610224,-0.1177336872,0.2539439911,1.068909924
14778.21438,0.3162419808,-0.3248324177,-0.09523944855,0.4632446897
14788.202379999999,-0.1248582271,-0.6485021165,-0.1155117452,0.6704383158
14798.19038,-0.4955678988,-0.1933203515,0.03146152854,0.5328697105
14808.17838,-1.26249572,-0.1964775556,0.1560352886,1.287185257
14818.166379999999,-1.013661026,0.02007232189,0.2170135617,1.036825183
14828.15438,-0.005690510273,-0.01224231541,0.1748036814,0.1753242231
14838.14237,1.524794213,0.08119619071,-0.1318061811,1.532632729
14848.13038,0.6233976808,0.08241884351,-0.3417095286,0.7156695719
14858.11838,-1.286673665,0.2074267593,-0.4002886891,1.363373028
14868.10637,-1.221083108,0.9026469594,-0.4773421276,1.591750922
14878.09438,-0.7901684573,0.2896044052,-0.355581463,0.9136055381
14888.08238,-0.5940393957,-0.3101994681,-0.1227921134,0.6813108078
14898.07037,-0.4434724233,-0.680332312,0.004181343913,0.812119036
14908.05738,-0.2680389968,-1.122614534,0.115424037,1.159927155
14918.045380000001,-0.2758032221,-1.139411539,0.09854020178,1.176450697
14928.03338,-0.1727042386,-1.041981723,0.0378431797,1.056875003
14938.02138,-0.1608259124,-0.9462706965,0.03277364373,0.9603995611
14948.00938,-0.04169035524,-0.9888293633,0.03072711825,0.9901847056
14957.99738,0.275405319,-0.9989219499,0.002571020722,1.036194847
14967.98538,0.4998533231,-1.114485735,-0.06706580937,1.223286402
14977.97338,0.7042047393,-1.146243133,-0.139818036,1.352526051
14987.96138,0.6344687989,-1.060603935,-0.2532306308,1.261569307
14997.94938,0.4941081414,-1.082830079,-0.1557364959,1.200382311
15007.93737,0.2481298122,-0.7042143872,-0.01686336994,0.746840465
15017.925379999999,-0.08630548775,-0.362682614,0.1225365901,0.392431563
15027.91338,0.01428708673,-0.2827467906,0.1054083413,0.3020940034
15037.90038,0.2117422968,-0.4670951745,0.1511534482,0.5346588325
15047.88837,0.3721287909,-0.6020100278,0.2184408671,0.7406836862
15057.87638,0.3823669732,-0.7945839822,0.2338757622,0.9122861827
15067.864379999999,0.4473751473,-0.7021009111,0.1484227985,0.8456474082
15077.85238,0.4909184852,-0.4916102108,0.1060357475,0.7027980779
15087.84038,0.509736287,-0.4183735424,0.07930637062,0.6641965099
15097.828379999999,0.637111448,-0.266902298,0.1982931161,0.7186570767
15107.816379999998,0.6638188979,-0.06168549389,0.1979393595,0.6954427506
15117.804380000001,0.3026662078,0.3488366997,0.0218972379,0.4623563187
15127.79238,0.4295218438,0.5402988061,0.05047491968,0.6920690224
15137.78038,0.8874670029,0.8498711604,0.03462136388,1.229258846
15147.76837,0.1666561711,1.098505295,-0.07578283846,1.11365668
15157.75638,-0.6814883065,0.8387740222,-0.1000218862,1.085344438
15167.74338,-0.3635050249,1.095264768,-0.07842344105,1.156672404
15177.731380000001,0.05364264876,1.103352929,-0.1709415954,1.117804209
15187.71937,0.281508058,0.4788033468,-0.1025882292,0.5648218979
15197.70738,0.4525171888,-0.007511917949,0.001916717291,0.4525835932
15207.695380000001,0.5986724371,-0.3236854863,-0.02705506682,0.6811115603
15217.683369999999,0.6120596373,-0.5135539341,-0.05035563648,0.8005562647
15227.67138,0.5193251359,-0.5007073089,-0.01846784592,0.7216283444
15237.659380000001,0.27555033,-0.3506560609,-0.03669127822,0.4474750354
15247.64738,0.06564493597,-0.2487227198,0.01032969117,0.2574469878
15257.63538,0.3977524593,-0.357406379,-0.05557953894,0.5376201483
15267.623379999999,0.4125868455,-0.3637003219,-0.09489797115,0.5581321117
15277.61138,0.147451576,-0.1926143003,0.001499226093,0.2425788194
15287.598380000001,0.01099685848,0.1261232722,0.06519470036,0.1424021055
15297.586369999999,-0.05410311699,0.4121409953,-0.009663108587,0.4157892771
15307.57438,-0.2323282966,0.3527101877,-0.1889890265,0.4627069981
15317.56238,-0.4422027004,0.2038380307,-0.1763105088,0.5178596012
15327.55037,-0.3534875751,0.2707252076,-0.1876862669,0.4831891333
15337.53838,-0.1490396798,-0.08858531713,-0.2993002582,0.3458913545
15347.52638,-0.2171123797,-0.2169609368,-0.295818826,0.4262846599
15357.51437,-0.1978145215,-0.2598765761,-0.1826114684,0.3741836021
15367.50238,0.01202655315,-0.0283695209,-0.0456193918,0.05505085472
15377.49038,-0.3000674129,0.3509463751,-0.0525688076,0.4647228099
15387.478379999999,-0.4398448107,0.10729056,0.04788518786,0.4552666394
15397.46638,-0.4069887212,-0.004922186136,0.1353542715,0.428934524
15407.454380000001,-0.382979469,0.1658515942,0.2529534727,0.4880220122
15417.44138,-0.3927408108,0.3944145763,0.2636158705,0.6158746054
15427.42938,-0.3407464921,0.4264865541,0.3199415141,0.6327412783
15437.417370000001,-0.1674733195,0.2917804465,0.3110601783,0.4581938195
15447.40538,-0.008080852032,0.1791876313,0.166215291,0.2445424919
15457.39338,-0.04997995287,0.2070142382,-0.04467740536,0.2175981642
15467.38137,-0.1665611538,0.3516275758,-0.1792715389,0.4283956753
15477.36938,-0.3190337339,0.5317630407,-0.09473600328,0.6273191892
15487.357380000001,-0.3166197109,0.7090880415,0.1672677898,0.7943754814
15497.34537,-0.3376538998,0.7935314834,0.1213092595,0.8708721535
15507.33338,-0.08720771313,0.8292126551,0.0146227169,0.8339140462
15517.32138,0.0530377543,0.4060873729,0.04396404505,0.4118892995
15527.31,0.2676410937,-0.1670634297,-0.5250326031,0.6125366756
15537.298,0.05912295163,-0.04132081121,0.0163985163,0.07397191484
15547.285,-0.8271512192,-0.178133086,-0.1006416911,0.8520793894
15557.273000000001,0.2663327792,0.4716443083,-0.1883756536,0.5734691707
15567.261,0.4915470609,0.6246285197,1.043395287,1.311660408
15577.249,0.7427618641,0.07896810919,0.8611615491,1.139969457
15587.237,0.8251058632,-0.5711016458,0.458774879,1.103372632
15597.225,-0.001999747753,-0.7765201789,0.3256472272,0.8420413908
15607.213,-0.4914590603,-1.038733595,-0.08829061747,1.152516691
15617.201,-0.630326339,-0.9071949238,-0.497157172,1.211395549
15627.189,-0.5363355634,-0.5698883486,-0.6553407276,1.020735047
15637.177,-0.3577586737,-0.6975965086,-0.7370988357,1.076079389
15647.164999999999,-0.2588270009,-1.095550112,-0.4646355432,1.217829074
15657.152999999998,-0.09463513881,-1.244453552,-0.3081634676,1.285529142
15667.141000000001,-0.4070641503,-0.9290336895,-0.2341096509,1.040966929
15677.129,-0.4527969781,-0.4978804725,-0.4686970192,0.8201139946
15687.116,-0.05430455357,-0.2209104386,0.247222032,0.3359600266
15697.104,0.3509788272,0.3336368626,-0.2011582518,0.5243704182
15707.091999999999,0.2471398786,0.3876078326,0.3474579263,0.5762334266
15717.08,-0.1806760401,1.285789566,0.0934811908,1.301782383
15727.068,1.010674853,-0.348357228,-0.8039009356,1.337562384
15737.056,-0.6647193691,-1.42602597,-0.7050280273,1.724084228
15747.044,-1.943906844,-1.395635651,0.06443514705,2.393893184
15757.032000000001,-1.078293809,0.1206602186,0.05039130449,1.08619322
15767.02,-0.7757769978,1.041772393,-0.186224463,1.312173471
15777.008,-0.8166130748,0.073846533,-0.2365263051,0.8533785312
15786.996000000001,-0.5364133313,0.2394057664,-0.2631872696,0.6436784305
15796.984,0.04914730936,0.9824333864,0.04834945679,0.9848494742
15806.972,0.6277295905,1.581508697,-0.05417211413,1.702395023
15816.959,0.7827594504,2.629424759,-0.5456142175,2.797191769
15826.947,0.07424648255,1.012788329,0.1641658419,1.028690023
15836.935000000001,-0.6832822323,0.2262144479,0.5480817425,0.9046773911
15846.923,-0.7617390025,-0.9883516458,0.366598202,1.300568924
15856.911,-0.7145715603,-1.188850916,-0.2238331693,1.405019681
15866.899,-0.7023628664,-0.7223439717,-0.05930070698,1.009262594
15876.887,-0.4943043154,-0.2167899057,0.1181044006,0.552524451
15886.875,-0.3327957407,0.009373086691,0.5167570388,0.6147183883
15896.863,-0.08949602097,0.005453113317,0.646710822,0.6528967464
15906.850999999999,-0.1488499376,-0.0610472703,0.5204133028,0.5447137586
15916.839,0.01704229474,0.6519774091,0.1265618134,0.6643665211
15926.827,-0.3016496694,1.403503665,0.1926815432,1.44842716
15936.814999999999,1.260481939,4.426381133,1.133169343,4.739803521
15946.802,2.88127837,5.231557054,-0.5208535981,5.995184962
15956.789999999999,0.3097211659,0.6679730523,-1.262765862,1.461743076
15966.778,-3.762091242,-3.61307232,0.382797913,5.230120108
15976.766,-1.932957932,-3.641680992,0.49421076,4.152398233
15986.753999999999,-1.506955235,-3.127212845,0.8281949472,3.568792672
15996.742,-1.55174403,-2.472592495,0.9538042492,3.071052869
16006.730000000001,0.6500995758,-1.151381081,0.08331989944,1.324858505
16016.718,2.067585103,0.4664090037,0.08030507505,2.12105974
16026.706,-2.048754145,0.7400896865,1.660826177,2.739246225
16036.694000000001,-2.907735267,-1.240083928,2.186118397,3.843415951
16046.682,3.156686028,-1.618416322,0.2783531928,3.558288714
16056.67,4.66969781,0.9392394197,0.2113797694,4.76790622
16066.658,3.773942086,2.09545264,0.005747812986,4.316664647
16076.644999999999,2.090109308,1.124791161,-0.6409624243,2.458565619
16086.633,0.8779059282,0.3313935784,-0.969544369,1.349280107
16096.621,-0.2613809185,-0.5152443641,-0.7117248434,0.91670551
16106.608999999999,-0.4449103267,-1.600962676,-0.306073088,1.689587945
16116.596999999998,1.325004941,-0.6662639111,-0.1901754266,1.495229877
16126.585,2.578952178,0.4839249229,0.5912529051,2.689750484
16136.572999999999,2.053066466,0.2719665715,0.4000501227,2.109286095
16146.560999999998,1.07122628,0.1562270772,0.2061792558,1.102017481
16156.548999999999,-0.3299890041,-1.048099665,-0.08699136615,1.102258204
16166.537000000002,0.1611929713,-0.1533859152,-0.1745931816,0.2828306773
16176.525000000001,0.1262170834,0.9449471793,-0.06921992362,0.9558490056
16186.513,-0.8370913397,1.515017961,-0.7888496178,1.902179027
16196.501000000002,-0.6086840397,1.064728561,-1.132925515,1.669629717
16206.489000000001,-0.8378080621,-0.3784437838,-0.4431961423,1.020570854
16216.476,-1.261468511,-2.610902826,-0.7698654628,3.000134864
16226.464,1.974931439,1.196372775,-0.04881957293,2.309555229
16236.452,0.6185674421,0.6386632991,-0.02012436211,0.8893376637
16246.44,0.3625824805,0.2855993548,-0.5993653321,0.7564865154
16256.428,-0.3144962946,0.5151604566,-0.7289320296,0.9463826494
16266.416,-0.8138778935,0.714642604,-0.7431653219,1.313547096
16276.403999999999,-0.7370922576,0.9010892612,-0.856289649,1.445163941
16286.392,-0.5508714491,0.3650443044,-0.6033671665,0.894856768
16296.38,-0.4216079298,0.1587975132,-0.173645348,0.4828277162
16306.367999999999,0.01101527721,0.3084964666,-0.1029460788,0.3254063634
16316.356,0.1098704977,0.4268023038,0.3634740347,0.571266231
16326.344,0.8201157032,-0.4760633415,0.5363259155,1.089436349
16336.331999999999,1.557649572,0.9626145414,0.3990385544,1.874067958
16346.319999999998,-1.526681256,0.6465833527,0.8317740279,1.854905314
16356.307,-1.408334196,1.004685258,-0.120306462,1.734148586
16366.295,-0.2633295031,0.783753477,-0.2830105001,0.8739032459
16376.283000000001,0.8765391415,1.272618712,0.0252295661,1.545482379
16386.271,-0.002538280883,0.2836031154,0.6386937046,0.6988324679
16396.259000000002,-0.9742945008,-3.914020908,0.03654334366,4.033626762
16406.247,0.6438114801,-0.799186618,-0.2237296736,1.050355863
16416.235,-0.2511373276,-0.3180321059,0.6599132502,0.7744029154
16426.223,-0.1350882232,-0.8108857271,0.5406534398,0.9839159682
16436.211,-0.2465354227,-1.428885843,0.3246485227,1.485897416
16446.199,-0.007207570374,-1.304978666,0.05290443778,1.306070498
16456.186999999998,0.07637121454,-1.033952326,-0.1373212749,1.045823651
16466.175,-0.5267404287,-0.5534059247,-0.179223007,0.7847512236
16476.163,0.3409333107,-0.2850061548,-0.1166326565,0.4594205123
16486.150999999998,1.78342197,1.022121363,0.8287270439,2.216329063
16496.138,-0.1063406616,-0.9345370889,0.9566085738,1.341554274
16506.125999999997,0.5340345378,-0.989351812,0.02002320528,1.124460237
16516.114,1.748941817,0.600620437,-0.302799232,1.87382757
16526.10125,0.3714161981,-0.5706470248,-0.5682903045,0.886871969
16536.08925,0.1429438113,-0.7189344603,-1.006146185,1.24484129
16546.07725,-0.8419087145,-1.051803876,-0.2436955762,1.369119867
16556.06525,-0.5603674735,-0.7225416076,0.2224602431,0.9410455036
16566.05325,-0.1624370395,0.2238656214,0.142044071,0.3109310637
16576.04125,-0.194738009,1.270436239,0.8680215025,1.550932771
16586.02925,0.06635975808,3.468327127,1.690941092,3.859142192
16596.01725,1.499871041,4.706980534,1.477542279,5.156395065
16606.00525,-0.4357105368,-3.212183414,0.3793767071,3.263723739
16615.99325,-1.770860251,-2.359455596,-0.8572216952,3.072101198
16625.981249999997,0.03331597298,0.2140513623,-0.7955136895,0.8244816371
16635.96825,0.6520927455,-0.04132402718,-0.7443365192,0.9904390328
16645.956250000003,0.8192659566,-0.8828398088,-1.083001403,1.619720616
16655.94425,0.4324143152,-0.318520056,-0.2544836891,0.594305573
16665.93225,-0.2668853411,4.333004315,0.3795924693,4.357779781
16675.92025,-4.183966974,11.47208742,-0.8611288047,12.24156494
16685.90825,-3.593670089,14.3344328,-5.585685484,15.79842748
16695.89625,4.674485217,10.939516,-4.934056569,12.87900371
16705.88425,2.663046249,0.1763719046,3.849902095,4.68451369
16715.87225,1.388617677,-4.066492319,4.055355127,5.908512845
16725.86025,4.177864235,5.313857199,-0.8144879043,6.808451986
16735.84825,2.920015882,4.868535594,0.8429790473,5.739315748
16745.83625,-0.08472644717,0.4052515134,4.635294254,4.653746897
16755.82425,2.094060857,-4.944016131,1.163024642,5.493724847
16765.81225,1.700173114,-5.317271973,-0.467473197,5.602008661
16775.79925,0.841871877,-6.908400509,1.145005862,7.053069138
16785.787249999998,-0.9165646483,-10.62276064,-1.24165332,10.73428327
16795.77525,-4.005496504,-7.747088284,-3.105122357,9.257600336
16805.76325,-4.930408491,-3.128857667,0.5037686187,5.861097253
16815.75125,-4.927861444,-1.95064956,0.03441554189,5.300003448
16825.739250000002,-4.264203929,-2.916678876,-0.8776056737,5.24029031
16835.72725,-3.052696221,-3.279983926,0.1017052996,4.481918422
16845.71525,-0.9400084747,-3.047241939,0.6319699913,3.250951466
16855.703250000002,1.442058451,-0.985453181,0.4814907271,1.811762641
16865.69125,1.742644073,-0.1608060318,0.4474844903,1.806352489
16875.67925,1.275408127,-0.4752131563,0.5700672734,1.475625335
16885.667250000002,0.4433293127,-0.3309307712,0.5849051678,0.8050901255
16895.65525,-0.1659612295,-0.2399048263,0.5271136272,0.6024501899
16905.64325,-0.5012434986,-0.1983629903,0.040299595,0.5405709742
16915.631250000002,-0.9031977671,-0.002088040709,-0.1061854362,0.9094206471
16925.61825,-1.055972356,0.1960811144,-0.2442972547,1.101456567
16935.60625,-0.7862027295,0.2174963956,-0.3746381235,0.8976486715
16945.59425,-0.8341604228,-0.1204606824,-0.1479211074,0.8556956474
16955.58225,-0.9734750135,-0.394523773,0.2601338536,1.082114703
16965.57025,-0.9329194567,-0.5930377677,0.3450734317,1.158062252
16975.55825,-0.8556762761,-0.6915908334,0.2338149512,1.124788514
16985.54625,-0.6856804678,-0.5894393912,0.1952280056,0.925046201
16995.534249999997,-0.4739343703,-0.4283567861,0.1717455876,0.6615133184
17005.522249999998,-0.1782497379,-0.5172603379,0.1510072678,0.5675688691
17015.51025,0.1085026878,-0.5792824852,0.0481734556,0.5913220043
17025.498249999997,0.328812325,-0.6640906473,0.1586940175,0.7578375314
17035.48625,0.5657110977,-0.8072405729,0.346059857,1.044712311
17045.474250000003,0.769019663,-0.5320482387,0.1451033342,0.946320003
17055.46225,0.8954841202,-0.6422783402,0.215696184,1.12291501
17065.44925,0.8665488812,-0.3656942225,0.3446103323,1.001696316
17075.43725,0.815119696,1.065007035,-0.06291779459,1.342616383
17085.42525,-0.2003010499,1.53414011,-1.015977108,1.850922979
17095.41325,-1.112564633,0.3105133174,-0.4791916019,1.250537154
17105.40125,-1.5048096,-1.941101788,0.2650677341,2.470341876
17115.38925,-0.3530469874,-2.532645446,0.5390518874,2.613333516
17125.37725,0.007019582391,-1.46807856,0.4980827862,1.550287198
17135.36525,-0.237782287,-0.1841927017,0.907879048,0.9564056321
17145.35325,0.3419323075,0.2993813883,0.6322997743,0.7786847392
17155.341249999998,0.4469178951,0.169327033,0.07839245081,0.4843063342
17165.32925,0.213650828,0.04802859083,-0.2276169026,0.3158526178
17175.31725,-0.1012001002,0.1333353741,-0.3628238243,0.3995759124
17185.305249999998,-0.5287034851,0.3477896096,-0.4598671389,0.7822804952
17195.29325,-0.8498460174,0.4780898403,-0.3651942855,1.041237252
17205.28025,-0.959657312,0.5082189345,-0.1330990005,1.094049353
17215.26825,-0.8935410905,0.479853799,0.03641061187,1.014889689
17225.256250000002,-0.6717860216,0.3996669839,0.05696766794,0.7837572788
17235.24425,-0.3919505596,0.2786797598,0.07046830416,0.4860590824
17245.23225,-0.1779190779,0.1466274109,0.02182122409,0.2315835956
17255.220250000002,-0.01267500937,0.07690988928,-0.01828658223,0.08006363732
17265.20825,-0.06501957625,0.01129228905,-0.01810531855,0.06843145218
17275.19625,-0.3075974572,0.04388145313,-0.01732646942,0.3111944475
17285.184250000002,-0.4706090587,0.07143367946,0.008766730428,0.4760803633
17295.17225,-0.6474826545,0.04479741946,0.03420211852,0.649931059
17305.16025,-0.7614823097,0.03039441168,0.003972013593,0.7620990127
17315.14825,-0.7827629587,0.07220653519,-0.03103702068,0.7866987542
17325.13625,-0.7515092987,0.06236537889,-0.1052253234,0.761398736
17335.12425,-0.7150407994,0.08245860457,-0.1975019878,0.7463844863
17345.11225,-0.6594709083,0.02923534736,-0.2149775612,0.6942419869
17355.09925,-0.6840540648,0.0294519867,-0.247482233,0.7280417836
17365.087249999997,-0.6414930591,0.1089548238,-0.2336149764,0.6913468418
17375.075249999998,-0.6080016696,0.09595280886,0.008224693537,0.6155815278
17385.063250000003,-0.5407686299,0.07442306846,0.1485537761,0.5657187717
17395.05125,-0.4371594769,0.05890265778,0.3516024327,0.5640941429
17405.03925,-0.2616886282,0.07041538686,0.6950854218,0.7460449105
17415.027250000003,-0.0511195752,0.02962184832,0.8611603796,0.863184722
17425.01525,0.2814387685,-0.09755143762,0.7904675424,0.8447265824
17435.00325,0.5749651936,-0.2448999564,0.4231513023,0.7547304069
17444.991250000003,0.6018313953,-0.3122525717,0.01086646557,0.6781008605
17454.97925,0.3400974512,-0.2045394042,-0.1610317343,0.4282917973
17464.96725,0.1941222972,0.1215881717,-0.3143474829,0.3889492123
17474.95525,0.1585238636,0.3825397584,-0.3222248518,0.5246859415
17484.94325,0.1367406464,0.5026791362,-0.2725170869,0.5879199614
17494.93125,0.1457769334,0.6051058361,-0.2642415226,0.6761860465
17504.91825,0.3153473568,0.7457877982,-0.2254160106,0.8405092344
17514.90625,0.5727166468,0.8651799019,-0.254578414,1.068340203
17524.894369999998,0.7585177714,0.8563283868,-0.4631854337,1.234175134
17534.88238,0.7749098557,0.8432417335,-0.8030489963,1.398724274
17544.87038,0.5788953996,0.8033610915,-1.065315914,1.454443854
17554.858379999998,0.2915602988,0.728428292,-1.193990911,1.428716025
17564.84638,0.2296359462,0.6520282799,-1.327300996,1.496529813
17574.83438,0.2077925026,0.5807641697,-1.482458618,1.605661327
17584.822379999998,0.1831733859,0.5694210099,-1.547286698,1.658881822
17594.81038,0.08477293253,0.4231257208,-1.506595339,1.567179422
17604.798379999997,-0.1808280677,0.1116978988,-1.307392981,1.32455714
17614.78638,-0.3577262217,-0.2861929934,-1.006830894,1.106156828
17624.77437,-0.3561112207,-0.6407492933,-0.706916678,1.018384038
17634.76238,-0.04382546604,-0.9738553749,-0.3316581649,1.029714573
17644.75038,0.4819140655,-1.301338043,0.3309559143,1.426623176
17654.73738,1.211361235,-1.510013329,1.146540756,2.249909332
17664.72537,1.970743809,-1.709759624,1.714729904,3.122083884
17674.71338,2.586684244,-1.722920537,1.891890598,3.638494275
17684.70138,2.825165273,-1.334967865,1.643572213,3.530584603
17694.68937,2.150950318,-1.356368675,1.47131324,2.937870981
17704.67738,1.307362576,-1.357238448,1.302107098,2.290584206
17714.66538,0.6848025084,-1.14112448,0.9556771123,1.638425555
17724.65338,0.203322891,-0.8483277878,0.5657607991,1.039752622
17734.64138,-0.1349923289,-0.3810848249,0.04814889729,0.407144801
17744.62938,-0.5106905526,-0.08053969458,-0.3635968262,0.6320554841
17754.61738,-0.665886181,0.3569909343,-0.6170882428,0.9755228509
17764.605379999997,-0.715736618,0.7131844546,-0.70808846,1.233815318
17774.59338,-0.6117836487,0.8374531361,-0.7959697723,1.307354147
17784.58138,-0.4232261467,0.6997881912,-0.8793194926,1.200844142
17794.56937,-0.2178292483,0.5686101472,-0.8233557916,1.024051679
17804.55637,-0.1340012258,0.556107046,-0.7477436918,0.9414520719
17814.54438,-0.1247070765,0.4632484375,-0.5807881433,0.7533032836
17824.53238,-0.08921038449,0.136246849,-0.2491931283,0.2976892873
17834.52037,0.02569734335,-0.04280863523,0.09869983077,0.1106100778
17844.50838,0.181037398,-0.08588302642,0.4186460227,0.4641281353
17854.49638,0.3332977241,-0.08927601948,0.5896864361,0.6832186132
17864.48438,0.4014914614,-0.09981431007,0.6644612145,0.7827304745
17874.47238,0.4892482281,-0.1270136569,0.6290960848,0.8070056888
17884.46038,0.5089966142,-0.09918251842,0.5825575107,0.7799281881
17894.44838,0.4735969859,-0.06839371204,0.5186515367,0.70567076
17904.43638,0.3983824968,-0.04101324767,0.4278542179,0.5860460153
17914.42438,0.2273917848,-0.08152436569,0.330122686,0.4090650728
17924.412379999998,0.0658601135,-0.06142777786,0.2015845138,0.2207877774
17934.40038,-0.05006210625,0.08182491258,0.1361459845,0.1665450687
17944.38838,-0.1574041218,0.1723357178,0.02087105155,0.234331513
17954.375379999998,-0.2944488233,0.06919185698,-0.04979196489,0.3065401481
17964.363380000003,-0.2960562229,0.1442123647,-0.1210724473,0.350863265
17974.35137,-0.3181078273,0.1380608015,-0.2153219622,0.4081873615
17984.33938,-0.3298332489,0.1689935955,-0.1949040699,0.4187318997
17994.327380000002,-0.2881531262,0.2236545369,-0.02773100495,0.3658176932
18004.31537,-0.130598731,0.0877058959,0.09452725768,0.1835313466
18014.30338,0.02482669294,-0.1059711358,0.07471630633,0.1320180773
18024.291380000002,0.03559667945,-0.2132630114,0.0005128008127,0.2162140111
18034.27938,0.09484300733,-0.3262750719,-0.04046857953,0.3421817128
18044.26738,0.2358451045,-0.356053918,0.0278461951,0.427986818
18054.255380000002,0.3571660584,-0.3687936853,0.1072350115,0.5244766184
18064.24338,0.415908941,-0.4251365782,0.1223529875,0.6071998114
18074.23138,0.4671235335,-0.4695831648,0.09617091,0.6692993262
18084.21938,0.4753698617,-0.4839315011,0.06453221083,0.6814180871
18094.20738,0.4040694988,-0.4861389711,0.08352981448,0.6376366434
18104.19438,0.3763782549,-0.4542609747,0.05865692854,0.5928357775
18114.182370000002,0.3132686716,-0.3546710515,-0.03100252211,0.4742256549
18124.17038,0.2061687309,-0.2076710267,-0.1360576916,0.3227142643
18134.158379999997,0.08596284091,-0.04415466428,-0.2381512463,0.2570121797
18144.146370000002,0.06212900519,0.01199468583,-0.2404328299,0.2486198533
18154.13438,0.07238502145,0.01778035954,-0.239668014,0.2509910147
18164.122379999997,0.03911611855,-0.003849075884,-0.2299060875,0.2332417098
18174.11038,-0.001881049275,0.01363453746,-0.1992725247,0.1997472855
18184.09838,-0.01704814196,0.02620517403,-0.16538791,0.1683166987
18194.08638,0.01579099059,-0.008546144217,-0.1091230774,0.1105904064
18204.074380000002,-0.01155351341,-0.05495447159,-0.08188967049,0.09929449004
