Time (ms),Linear Acceleration x (m/s^2),Linear Acceleration y (m/s^2),Linear Acceleration z (m/s^2),Absolute acceleration (m/s^2)
18.5439582,0.07074778279,0.2480779181,0.1124437112,0.2814098264
28.57995825,0.04528906066,0.1645244224,0.2535305929,0.3056094667
38.6159583,0.006826587729,0.0700363411,0.3721852165,0.3787789947
48.65195835,-0.01979740226,0.09503596544,0.3598353124,0.3726999113
58.6879584,0.02053004924,0.1156297128,0.1232435185,0.1702371236
68.72395822,0.0816955338,0.1758377615,-0.1020830297,0.2191210249
78.75995827,-0.01390495291,0.2469127142,-0.4466717273,0.5105632851
88.79595832000001,-0.1527304697,0.04433081165,-0.9750694031,0.9879535202
98.83195837,-0.1930831739,-0.1226308765,-0.9640930098,0.9908555775
108.8679582,-0.02437705119,-0.25967397,-0.4666528326,0.5345930018
118.9039582,0.04262745378,-0.289327101,0.01989865959,0.2931266413
128.9399583,0.2444599717,-0.430056864,0.2969005609,0.576939795
138.9749583,-0.05343261494,-0.2042673625,0.2798214287,0.3505427672
149.0109584,0.04050104071,-0.302696321,0.2000800252,0.3650991831
159.0469582,0.04632781852,-0.4929144323,-0.083262012,0.5020393082
169.0829583,-0.09840988196,-0.4733975959,-0.3728734338,0.6105934706
179.1189583,-0.1094234233,-0.5846043286,-0.6713428026,0.8969040446
189.1549584,-0.09211727293,-0.7172449073,-0.6617305648,0.9802107883
199.1909584,-0.2323580078,-0.8390068875,-0.5428993553,1.025993426
209.2269582,-0.3934788025,-0.9823313525,-0.4013195533,1.131749901
219.2629583,-0.3685601621,-1.012677232,-0.2475483066,1.10572688
229.29895829999998,-0.3569141896,-0.9527779166,-0.2290143871,1.042890736
239.3349584,-0.3686491494,-0.8818033898,-0.2585416567,0.9901127218
249.3709582,-0.3515134454,-0.8489059313,-0.3423866361,0.9805261807
259.40695819999996,-0.3877958571,-0.821695767,-0.315964238,0.9619786692
269.4429583,-0.3868615817,-0.8039459592,-0.1176266831,0.8999038978
279.47895830000004,-0.3456271996,-0.8108357334,0.01343573213,0.8815289369
289.5149584,0.204296964,-0.6740933329,1.056677238,1.269923563
299.55095819999997,-0.1347555532,-0.5694350432,0.7331069416,0.9380091233
309.5869583,-0.4690557824,-0.7978293331,0.08977113247,0.9298407541
319.6229583,-0.3543739033,-0.7688854694,-0.07684469283,0.8501004854
329.65895839999996,-0.5459453527,-0.7395081809,-0.3193450981,0.9730929912
339.6939584,-0.6019927785,-0.9038286817,-0.6354321277,1.258203314
349.7299582,-0.5425762235,-0.9510956727,-0.8627899987,1.394051118
359.7659583,-0.7156619199,-0.8775730754,-1.072854145,1.559911056
369.8019583,-0.5791208097,-0.4382995377,-1.090938998,1.310585859
379.8379584,0.007819591127,0.173166461,-0.9215352201,0.9376966094
389.8739582,0.3350489652,0.5933930591,-0.7059670901,0.9812047004
399.9099582,0.199140067,0.821655202,-0.4221151757,0.9449630992
409.94595830000003,0.3618235119,1.111169414,-0.2259200406,1.190232576
419.98195830000003,0.9017964819,1.407937462,-0.1306016546,1.677075307
430.0179584,1.28215976,1.506434248,-0.1582396889,1.984519487
440.0539582,1.403095237,1.593410704,-0.1151445401,2.126238975
450.0899583,1.43723976,1.641526565,0.09826070487,2.184015283
460.12595830000004,1.649081313,1.501215024,0.3318271494,2.254600848
470.1619584,1.973563921,1.156932282,0.6913882273,2.389867054
480.1979582,2.06035429,0.8576549739,1.158863763,2.514676336
490.23395819999996,1.603134039,1.017874091,1.344273709,2.326623781
500.2699583,1.035314216,1.11461569,1.180618914,1.925643965
510.30595830000004,-0.1687655541,1.73515262,1.099028621,2.060849421
520.3419584,-0.6422454496,1.592317567,0.5134048301,1.79207672
530.3779582,-0.5199034621,0.9927801807,-0.3101573682,1.162802516
540.4138332,-0.5506983715,0.5358996169,-0.7462041199,1.071110491
550.4498333,-0.3342544382,0.339113109,-1.286863407,1.372130154
560.4848333,-0.4091549684,-0.3427516851,-0.631256631,0.8266628333
570.5208334,-0.1378297268,-0.9834599382,-1.327390459,1.657756289
580.5568331999999,-0.06813409567,-0.8906888187,-1.548249734,1.787469179
590.5928332,-0.7051488454,-1.14999054,-0.888132416,1.615082761
600.6288333,-0.762443592,-0.8359702823,0.2586954385,1.160642009
610.6648332999999,-0.1538044662,0.0771411832,0.7376087129,0.7574121661
620.7008334000001,-0.4327838227,-0.1508812603,0.8504781014,0.9661159313
630.7368332,-0.25960384,-0.422957321,0.1448472261,0.5169794658
640.7728333,-0.2443640226,-0.448626086,-0.3273505211,0.6067433595
650.8088333,-0.08387286332,-0.2359580654,-0.6141663891,0.6632580337
660.8448334,-0.04309578834,-0.02257240858,-0.9463964117,0.9476459933
670.8808334,-0.2300819608,0.1719636522,-1.058053088,1.096351012
680.9168331999999,-0.3110280186,0.2662922873,-0.9041134411,0.9925074937
690.9528333000001,-0.1014469989,0.3517973643,-0.9261755705,0.9959187047
700.9888332999999,0.18557904,0.1673575446,-1.071703997,1.100453355
711.0248334,0.3890550184,0.09134352185,-0.9982296395,1.075253393
721.0608332,0.5388012977,0.2792709133,-0.6216332835,0.8687502636
731.0968332,0.6810269612,0.5288373864,-0.1576269007,0.8765346216
741.1328333,0.7028568099,0.5450090307,0.05901945591,0.8913617868
751.1688333,0.7417337043,0.286776107,0.1230698562,0.8047084025
761.2048334,0.7977257643,0.07105887294,0.1767244917,0.8201507815
771.2408332,0.7804680727,-0.1887552841,0.0553912586,0.8048771095
781.2758333,0.5487072484,-0.4620686156,0.02347715557,0.7177313054
791.3118333,-0.2016474627,-0.5715770245,0.07740602553,0.6110267481
801.3478334,-0.485999442,-0.5163851559,-0.09497281551,0.7154501538
811.3838331999999,-0.4516266578,-0.429936119,0.0281958586,0.6241848372
821.4198332,-0.3625630385,-0.411401761,0.3823734051,0.6685153602
831.4558333,-0.2258157409,-0.5967627364,0.724718526,0.9655751935
841.4918332999999,0.05841887834,-0.6770631337,1.052229846,1.252603249
851.5278334000001,0.5571707276,-0.5634891558,1.561926371,1.751448897
861.5638332,1.246129948,-0.4417904717,1.984170771,2.384313804
871.5998332,1.155206549,0.5815000418,2.721364916,3.013050195
881.6358333,0.816409007,1.464693899,3.012658582,3.447892634
891.6718333,1.547802714,1.093746538,2.152817334,2.868204527
901.7078334,2.006697461,1.115235933,1.192230899,2.586890103
911.7438331999999,2.064142116,1.280858901,0.4616096091,2.472724334
921.7798333000001,2.038663605,1.152463401,0.02191945732,2.341965338
931.8158332999999,1.671532429,0.8149360934,-0.1414932632,1.864983067
941.8518334,1.30545229,0.3711300865,-0.1275956011,1.36316685
951.8878332,0.9604589653,0.1527623096,-0.02000390947,0.9727373251
961.9238332,0.9104970657,0.2030650288,0.2282864088,0.9603931471
971.9598333,1.023403365,-0.05449107975,0.9596327537,1.404000978
981.9958333,0.8447802821,-0.2131424126,1.38615673,1.637227502
992.0318334,0.5199955923,-0.2735587683,1.082703779,1.231859282
1002.066833,0.3032612351,-0.1766093016,0.432858265,0.5572472519
1012.1028329999999,0.2947410745,-0.01075127542,-0.4603776008,0.5467498754
1022.1388330000001,0.5148600193,0.2403986236,-1.269648619,1.390999624
1032.174833,0.6762890355,0.6647731635,-1.654533404,1.907031988
1042.2108329999999,0.8351631472,0.6473895375,-2.033973261,2.292085932
1052.2468330000002,0.6616492885,0.187160456,-2.057350429,2.169216357
1062.282833,0.3569278575,-0.01648447037,-1.628351911,1.667093032
1072.318833,0.3317874614,-0.03270815492,-0.4964689547,0.5980252218
1082.3548329999999,0.6938826495,-0.02538057044,0.7347219425,1.010907334
1092.3908330000002,1.090724917,-0.3580763237,1.638636578,2.00075719
1102.426833,1.160101253,-0.542132493,1.919396485,2.307341636
1112.4628329999998,1.037094109,-0.6882370166,1.490638872,1.941967721
1122.498833,0.8017064756,-0.8131779818,0.7460199326,1.364015192
1132.534833,0.514419322,-0.6641023417,-0.2193618035,0.8682043308
1142.570833,0.3474662586,-0.4379853961,-1.116697152,1.248830068
1152.606833,0.381686942,-0.4950628455,-1.506228719,1.630796461
1162.642833,0.07805316612,-0.7639197215,-0.7725838333,1.089289409
1172.678833,-0.219212261,-0.7023837702,-0.05419667244,0.737790116
1182.714833,-0.2645777375,-0.9067895655,0.8105954129,1.244722306
1192.750833,-0.2951254924,-1.269168709,1.332213827,1.863513335
1202.786833,-0.3446705586,-1.289924278,1.466449526,1.983223802
1212.822833,-0.3441792463,-1.201575627,1.376733357,1.859472527
1222.858833,-0.3516695295,-1.205737237,1.018212499,1.616858199
1232.893833,-0.6770075852,-1.008499397,0.4246499437,1.286754786
1242.9298330000001,-1.311259452,-0.6300252074,-0.1550184578,1.462998235
1252.965833,-1.410587859,-0.3811965068,-0.7804167634,1.656538321
1263.0018329999998,-1.356767455,-0.009656384289,-1.300381,1.879335499
1273.037833,-1.182033063,0.3531240244,-1.434505017,1.892010408
1283.073833,-1.397001561,0.7303534146,-1.267078768,2.022502924
1293.109833,-2.021129559,1.371170755,-0.9054764271,2.604795864
1303.145833,-2.443482132,1.710931845,-0.5537430167,3.033895851
1313.181833,-2.697918458,1.41136203,-0.4566581869,3.078838009
1323.217833,-2.698445,1.040712512,-0.631533789,2.960324793
1333.2538330000002,-2.556757317,0.6305532841,-1.149733921,2.873411476
1343.289833,-2.038782888,0.3125048791,-1.897910306,2.802919637
1353.3258329999999,-1.14485208,0.1345251364,-2.706170341,2.941452229
1363.361833,-0.1787140068,0.07598646775,-3.356728631,3.362341408
1373.397833,0.06080285668,0.2201785134,-3.333635638,3.341452099
1383.433833,-1.148055477,1.1988403,-2.512092483,3.010956341
1393.4698329999999,-2.002439519,2.011793602,-1.524880752,3.222163688
1403.5058330000002,-1.939666735,1.998448502,-1.294915608,3.071304265
1413.541833,-1.484698101,1.680037204,-1.667266885,2.794035133
1423.577833,-1.123176452,1.531006149,-2.012823297,2.767121753
1433.6138329999999,-1.111213049,1.550780555,-2.22135021,2.928158384
1443.649833,-1.259913298,1.589737337,-2.406168417,3.147108637
1453.685833,-1.75180476,1.524166807,-2.409935194,3.346594091
1463.720833,-1.768030491,1.188754437,-2.782149062,3.504200669
1473.756833,-1.609948384,0.8003452438,-3.19220494,3.663694677
1483.7928330000002,-1.721106585,0.5163285841,-3.250676512,3.714256435
1493.828833,-2.203797453,0.5066961734,-2.796017488,3.595994719
1503.8648329999999,-2.520902191,0.4553735536,-2.273108593,3.424811762
1513.900833,-2.368107721,0.02164083749,-2.020560333,3.113047793
1523.936833,-1.911806507,-0.384724132,-1.782475744,2.642013731
1533.972833,-1.473882214,-0.6313860007,-1.600474141,2.265500946
1544.0089580000001,-1.120574149,-0.6587245113,-0.5872580874,1.426350751
1554.044958,-0.9252952722,-0.4312863873,1.069130053,1.478248409
1564.080958,-0.5865312785,0.01262910873,1.731049483,1.82776113
1574.116958,0.02614465535,0.1667862716,2.572688348,2.578221585
1584.152958,0.2996130842,0.1533318284,2.624894044,2.646383833
1594.188958,0.4558080018,-0.1107769623,2.524280419,2.56749374
1604.224958,0.9334623706,-0.7502612105,2.982531388,3.213990877
1614.260958,0.6215274489,-0.7712638244,3.400179875,3.541520499
1624.296958,0.3961740035,-0.5128613314,3.698590187,3.754936745
1634.332958,0.3188925236,-0.7700850257,3.549240021,3.64579595
1644.368958,0.1066573066,-1.163389216,3.107163035,3.319534964
1654.404958,0.2339836434,-1.631732186,2.78560652,3.236804282
1664.440958,0.4285158303,-1.769330911,2.62392516,3.19360939
1674.476958,0.3322782621,-1.710701757,2.830098569,3.323607566
1684.512958,0.2304577723,-1.632737907,2.762752093,3.217412468
1694.5489579999999,0.3766925427,-1.477375633,2.110285272,2.603428501
1704.583958,0.7486666748,-1.179088405,1.24722864,1.872519837
1714.6199580000002,1.130579904,-0.8863352743,0.4825116509,1.515459874
1724.655958,1.389565949,-0.5395351598,0.0479728961,1.491406422
1734.6919579999999,1.490227813,-0.2077524492,-0.1504009116,1.512137708
1744.727958,1.595531782,-0.04218707621,-0.4325577182,1.653664898
1754.763958,1.525708718,-0.08860695183,-0.5682341713,1.630499419
1764.799958,1.362542165,-0.3617572922,-0.8356869847,1.638829529
1774.835958,1.429626978,-0.5891657415,-1.338734642,2.045277489
1784.8719580000002,1.64366343,-0.5442643878,-1.298616895,2.164314911
1794.907958,1.787640005,-0.2827213553,-0.3765870005,1.84862271
1804.943958,1.577993351,0.09496959955,0.9004209244,1.81929659
1814.979958,1.478439242,0.09202640355,1.29641308,1.968486302
1825.015958,1.408141676,-0.03304115385,1.17613176,1.835004255
1835.051958,1.31384246,-0.1357419419,1.143354024,1.74695916
1845.0879579999998,1.222216883,-0.2651820472,1.089066135,1.658372899
1855.1239580000001,1.131150592,-0.4411858696,0.8132465404,1.461340675
1865.159958,0.949293707,-0.5938958466,0.6429908234,1.291242819
1875.195958,0.4753081736,-0.7572041944,0.6225167978,1.089404982
1885.231958,-0.2389096302,-0.7271802038,0.4478744996,0.8868260413
1895.2679580000001,-0.6303269237,-0.4566862535,0.267228865,0.8229736516
1905.303958,-0.8617714137,0.13086858,0.316119774,0.9272045439
1915.3399579999998,-0.472309429,0.683538048,0.2584673971,0.8701182995
1925.375958,0.3601735738,0.6961540005,0.006090459824,0.7838319267
1935.4109580000002,1.033187511,0.3178315464,-0.444591288,1.168826222
1945.446958,1.291207596,-0.2822421759,-0.7183222568,1.504282077
1955.4829579999998,0.8799074301,-0.7590317416,-0.8515995973,1.440690163
1965.518958,0.3051489356,-1.010118198,-1.309749994,1.68193332
1975.554958,0.2393364769,-3.001301242,11.31249118,11.70630376
1985.590958,-0.2998152517,-1.514564802,-0.2510887957,1.564238251
1995.6269579999998,-1.602182843,-1.494679883,1.505076817,2.658253946
2005.662958,-1.976482852,-1.179475783,0.7123101497,2.409363678
2015.6989580000002,-2.511820588,-1.658834908,0.1081296355,3.012086973
2025.7349580000002,-2.06721512,-1.787361386,-0.03680588365,2.733019164
2035.770958,-1.435727963,-1.55704073,-0.2229373759,2.129645908
2045.8069580000001,-1.083933887,-1.185581153,-0.2761195564,1.629956243
2055.8429579999997,-0.7074955523,-0.8378212184,-0.3575969982,1.153416648
2065.878958,-0.3097059631,-0.7248962814,-0.4754914838,0.9205892426
2075.914958,-0.3706089534,-0.6762600186,-0.6447175062,1.005156342
2085.9509580000004,-0.01564714909,-0.5359737669,-0.8501418865,1.005113894
2095.986958,0.4159143497,-0.4055288176,-1.066292399,1.214256089
2106.022958,0.7984706265,-0.3437984464,-1.110772169,1.410520302
2116.058958,1.014638388,-0.3578570531,-0.8767765385,1.387908437
2126.094958,0.807200958,-0.4328198196,-0.3892497307,0.9951993447
2136.1309579999997,0.1940502302,-0.364862456,0.4356216592,0.6004551054
2146.166958,-0.225468197,-0.03436306313,0.8106585628,0.842130651
2156.2029580000003,-0.3137534058,0.06437667489,0.7148794162,0.7833505829
2166.238958,-0.3387176545,-0.125521009,0.5563748485,0.6633537105
2176.274958,-0.2903532873,-0.2176919849,0.2225005889,0.4256775115
2186.309958,-0.1173975454,-0.08561653957,-0.1559388095,0.2131414737
2196.3459580000003,-0.01065640435,-0.06112913132,-0.1247351432,0.1393168532
2206.381958,-0.1071048378,-0.04673328638,-0.04780625045,0.1262572133
2216.417958,-0.2686098312,-0.2524640608,0.2110125643,0.4247536294
2226.453958,-0.5633170284,-0.5063909487,0.6695851296,1.010990659
2236.489958,-0.9033860475,-0.736876203,1.131477744,1.624602959
2246.5259579999997,-1.049987292,-0.4997978476,0.9917901009,1.528371292
2256.561958,-0.7321161309,-0.1889222952,0.4834466207,0.8974443146
2266.5979580000003,-0.4302599086,-0.1138312554,0.3704485935,0.5790624354
2276.6339580000003,-0.3388158877,-0.1142203145,0.3826365298,0.5236918941
2286.669958,-0.3939567393,0.06221590944,0.3167325622,0.5093056526
2296.705958,-0.6099572709,0.173484111,0.1560943455,0.653077372
2306.741958,-0.4058204475,-0.129475554,0.5793175685,0.7190709283
2316.7779579999997,0.8420262435,-1.498632455,6.316992068,6.54670117
2326.8139579999997,-2.1217502,0.0146512769,-13.53948278,13.7047303
2336.8499580000002,-0.793157554,-0.1966631682,-6.351449125,6.403802097
2346.8859580000003,3.650273767,0.383701052,6.403244931,7.380600972
2356.921958,0.3558985282,-0.4950135827,-0.7593913454,0.9738467153
2366.957958,0.1437333316,-0.4517488647,0.5859950888,0.7537417007
2376.993958,0.4184907791,-0.3736413194,0.4513477457,0.7200396901
2387.0299579999996,0.3983547226,-0.4921357659,0.5107577956,0.8134848633
2397.065958,0.1018333536,-0.03072313027,0.6776390845,0.6859363465
2407.101958,0.04527016684,-0.06477937903,0.5738510066,0.5792674113
2417.1379580000003,0.4397970097,-0.03609621439,1.057667756,1.146030291
2427.173958,0.8105562365,0.8500860456,-3.918612142,4.090864067
2437.2089579999997,-0.5476387428,0.5084785509,0.5702573079,0.9400276733
2447.244958,-0.7668561202,0.49965386,0.2162914306,0.9404808726
2457.2809580000003,-0.5779862306,0.7817539486,-0.6860362709,1.189896249
2467.316958,-0.4302493836,0.6612279966,-0.6377908945,1.014452671
2477.352958,1.046711901,-0.2720910076,9.154311948,9.217975188
2487.388958,0.5342647719,0.3682667781,-0.4262585127,0.7763733548
2497.424958,0.5236235704,0.2974608703,0.1186218792,0.613788044
2507.4609579999997,0.4051941376,-0.05912572905,-0.9313351536,1.017380612
2517.496958,0.3226575458,-0.3287567034,-2.541331485,2.582741679
2527.5329580000002,0.3466328841,-0.3339872936,-1.379589722,1.461153541
2537.568958,0.4910344428,-0.5361066449,0.5236959296,0.8959813533
2547.605125,0.5361298145,-0.2688796802,0.7567484039,0.965608413
2557.641125,0.7967284486,-0.1122920856,0.7265767711,1.084112327
2567.6771249999997,0.3748023937,0.01854850095,-0.07213885367,0.3821320393
2577.7131249999998,-0.4653920268,0.1527709708,-0.9395399666,1.059558425
2587.7491250000003,-0.3773148327,-0.6747376961,-0.8453676349,1.145549597
2597.7851250000003,-0.06935290209,-0.4224580053,0.08767315149,0.4369979093
2607.821125,0.1519214435,-0.1035610049,0.5938566703,0.6216677179
2617.857125,0.473655787,0.009507737104,1.065525829,1.166098407
2627.893125,0.459092931,0.03881158825,1.679776418,1.741815568
2637.9291249999997,-0.5085164847,0.2625180923,0.5669624019,0.8055750301
2647.9651249999997,-0.2733042317,-1.435594646,-1.312530345,1.964271645
2658.0011250000002,-0.4882922449,-0.7435038757,-1.101416039,1.415748784
2668.0371250000003,-0.03563603852,0.1675775461,-0.9802611458,0.995120131
2678.073125,-0.1129444704,0.02508630931,-0.971451146,0.9783164648
2688.109125,-0.1413338353,0.04804390322,-0.8957074839,0.908061323
2698.145125,-0.1319967912,0.05174519073,-0.6454577637,0.6608452484
2708.1801250000003,-0.02476932856,-0.02310896371,0.2943622845,0.2963050766
2718.216125,0.491538217,-0.2568527616,2.744609937,2.800083368
2728.252125,0.3180546907,-0.201291751,1.665322101,1.707329744
2738.288125,-0.03768788131,-0.03560292866,-0.60915591,0.6113582155
2748.324125,-0.04265192986,-0.04044475213,-0.7841946495,0.7863944388
2758.3601249999997,-0.0898385399,-0.008141626529,-0.8581402928,0.8628684786
2768.396125,-0.1015481831,0.01319870062,-0.877233206,0.8831898646
2778.4321250000003,-0.1088434343,0.01475530252,-0.780234915,0.7879283817
2788.468125,-0.07689590164,0.0153596488,-0.5225299948,0.5283810122
2798.504125,0.03613651221,-0.01870352525,0.2874532145,0.2903188246
2808.540125,0.4583386401,-0.2305442746,2.34478844,2.400262028
2818.576125,0.18404992,-0.08590206642,0.7110337025,0.7394744513
2828.6121249999997,-0.03013597846,-0.008054429926,-0.5823417485,0.5831766139
2838.648125,-0.05071628634,-0.005216593444,-0.6438263905,0.6458419123
2848.684125,-0.09368001441,0.01610107575,-0.7100484467,0.7163825698
2858.7201250000003,-0.1010690677,0.01699650373,-0.6462021142,0.6542790001
2868.756125,-0.07770507406,-0.007411784381,-0.4543456131,0.4610021141
2878.792125,-0.004488364419,-0.05690042496,-0.006438369155,0.05743915366
2888.828125,0.2890449545,-0.192613679,1.488746713,1.52872947
2898.8641249999996,0.1980708488,-0.1455730118,0.801838038,0.8386702582
2908.900125,-0.003404938742,-0.02664192449,-0.4165714306,0.4174363934
2918.936125,-0.02874754339,-0.02406856488,-0.4710896999,0.4725793292
2928.9721250000002,-0.05996209103,0.02153569724,-0.5393460023,0.543096077
2939.008125,-0.07206848608,0.02945297342,-0.458260324,0.4648267084
2949.044125,-0.04984424265,0.01652803212,-0.2720013624,0.2770241245
2959.080125,0.02917138659,-0.03631541189,0.1171431184,0.1260646228
2969.1151250000003,0.2232791457,-0.1416699588,1.061590068,1.094028074
2979.151125,0.1025004753,-0.08478470005,0.277346887,0.307597283
2989.187125,0.01209756256,-0.05377340712,-0.3125436169,0.3173664172
2999.223125,-0.008880340001,-0.03895436995,-0.3364704233,0.3388342503
3009.2591249999996,-0.04968277727,-0.03133592304,-0.3753713644,0.379939442
3019.295125,-0.0537592733,-0.02870288529,-0.2678264505,0.2746723915
3029.331125,-0.02257632347,-0.03065388188,-0.1252526218,0.1309105424
3039.367125,0.04965040288,-0.06987229016,0.3026875502,0.314590293
3049.403125,0.1359080303,-0.1040362921,0.5628576565,0.5883054345
3059.439125,0.04771216967,-0.04872554239,-0.06988416731,0.09764438774
3069.475125,0.03657176661,-0.04082803711,-0.2292406744,0.235702587
3079.511125,-0.001669304695,-0.02503920268,-0.2442452145,0.2455310022
3089.547125,-0.004651788957,-0.02095795579,-0.2284881377,0.2294944534
3099.583125,-0.01039399798,-0.02286056668,-0.131627841,0.1340019747
3109.619125,0.02756909418,-0.03311618093,0.03625916898,0.05631575027
3119.6551249999998,0.09254972935,-0.08681635167,0.3246298116,0.3485499188
3129.691125,0.0586647766,-0.08093058094,0.08132307529,0.1288594487
3139.727125,0.02149456345,-0.05431043733,-0.1507955986,0.1617125611
3149.7631250000004,0.02510694359,-0.05101783365,-0.159188692,0.1690391009
3159.799125,-0.003936730443,-0.04052372608,-0.143230471,0.1489047953
3169.835125,-0.005329268262,-0.03505756617,-0.09151360273,0.09814363724
3179.871125,-0.007633987141,-0.03304890141,0.007836438417,0.0348126042
3189.907125,0.04343152815,-0.0519918336,0.1488718647,0.1635612439
3199.943125,0.0495619272,-0.04902963415,0.03964119852,0.08019796925
3209.979125,0.04040286231,-0.04693015482,-0.09341102421,0.1120734141
3220.0151250000004,0.04831728796,-0.02940170065,-0.1130313563,0.1263926732
3230.051125,0.04145003468,-0.02987583674,-0.1099229765,0.121217704
3240.086125,0.03387043978,-0.04305520501,-0.05607070506,0.07838929349
3250.122125,0.02379336203,-0.04814279426,0.01906777024,0.05698624902
3260.158125,0.01252157934,-0.04472151529,0.0385536164,0.06035880397
3270.194125,0.01711605074,-0.05143477667,-0.02040385902,0.05792074678
3280.230125,0.002861104289,-0.06349820383,-0.06965378702,0.09429664815
3290.266125,0.03017401733,-0.06169748068,-0.080002774,0.1054395291
3300.302125,0.02368545349,-0.06214599866,-0.05771961987,0.08806066304
3310.3381249999998,0.02519580071,-0.05380567644,-0.001440169215,0.05943023875
3320.374125,0.02316671866,-0.03584299341,0.01548459649,0.04540032774
3330.4101250000003,0.003432376116,-0.03251991112,-0.03974060118,0.05146495125
3340.446125,0.01344287898,-0.02961004425,-0.07881169617,0.08525695965
3350.482125,0.01101631874,-0.03512561314,-0.06655359328,0.07605622102
3360.518125,0.02633394753,-0.04077712979,-0.04995451748,0.06965418095
3370.554125,0.05735446125,-0.05130653992,-0.01208677948,0.07789727532
3380.5901249999997,0.07447038066,-0.05985206287,-0.01058404505,0.09612558991
3390.626125,0.04135336376,-0.05446268421,-0.03138551474,0.07524184474
3400.6621250000003,0.02188744838,-0.04847476993,-0.05324006796,0.07525535564
3410.6981250000003,-0.01373812796,-0.03637647875,-0.059680776,0.07123046673
3420.734125,0.006014284422,-0.03383611936,-0.04576498747,0.05723188507
3430.770125,-0.002901869203,-0.02531815141,-0.03274616182,0.041493864
3440.806125,0.00325913979,-0.0483587027,-0.03065110445,0.05734698181
3450.8421249999997,0.03169636734,-0.04074274085,-0.04682157934,0.06969139779
3460.8781249999997,0.02894076875,-0.04857333206,-0.04293318093,0.0709943287
3470.9141250000002,0.02798291945,-0.04613263115,-0.02886419535,0.06119154526
3480.9501250000003,0.027987901,-0.03892951928,-0.02272754252,0.05306007221
3490.986125,0.02825419828,-0.04424127616,-0.02332395852,0.05744212111
3501.022125,0.03392291625,-0.04933178902,-0.03829283059,0.07106849182
3511.057125,0.02531274731,-0.03634157818,-0.03694972515,0.05767779182
3521.0931250000003,0.0405525693,-0.04490727402,-0.02273280501,0.06463709895
3531.129125,0.03307142461,-0.04375456855,-0.02917292833,0.06212279084
3541.165125,0.01642767472,-0.04613383714,-0.01495308459,0.05120345852
3551.2007080000003,0.009478640354,-0.03788842253,-0.02124001086,0.04445801667
3561.236708,0.01202019659,-0.03674905602,-0.03995402455,0.05559948131
3571.272708,-0.005062538155,-0.03647982828,-0.04893944085,0.06124929416
3581.308708,-0.004965635402,-0.03429337163,-0.04385294795,0.05589073194
3591.3447079999996,0.006251498652,-0.05024117723,-0.02664108396,0.05721017811
3601.380708,0.03383826639,-0.049967089,-0.03323148072,0.06889172349
3611.416708,0.04518011972,-0.05394231856,-0.02245623171,0.07385999792
3621.4527080000003,0.05201239021,-0.05387182306,-0.02694923222,0.07958469183
3631.488708,0.0355444291,-0.03857199859,-0.04206896245,0.06723840507
3641.524708,0.0232237884,-0.02543301266,-0.0414737159,0.05390966139
3651.560708,0.005298517275,-0.02796255469,-0.03234796643,0.04308560876
3661.596708,0.01014210633,-0.02255230878,-0.04881957293,0.05472494543
3671.632708,0.02261196865,-0.03041487694,-0.04493526757,0.0587838765
3681.668708,0.02140566293,-0.04010524817,-0.04299516141,0.06257169681
3691.704708,0.03676168692,-0.0530760901,-0.03731400669,0.0745709599
3701.740708,0.0308895201,-0.04875967551,-0.02743864417,0.06391046551
3711.776708,0.02832466636,-0.05766092844,-0.02639316201,0.06945263418
3721.812708,0.02808204117,-0.05605754882,-0.02983951092,0.06943663463
3731.848708,0.0007777384965,-0.04395417787,-0.04121526897,0.06026004502
3741.884708,0.003760439746,-0.02596971396,-0.04810153484,0.05479347228
3751.920708,0.02778498892,-0.03774691992,-0.03822383344,0.06048055072
3761.956708,0.02879439878,-0.03259153951,-0.03627963424,0.05663512787
3771.9927079999998,0.03967325313,-0.04086078152,-0.03748123705,0.06817927553
3782.028708,0.03164310286,-0.04414304294,-0.02969742358,0.06190178645
3792.064708,0.02332004591,-0.03023555014,-0.03988093436,0.05521324079
3802.1007080000004,0.0169851245,-0.03981672462,-0.04841786921,0.06494733307
3812.135708,0.01269336186,-0.0426631492,-0.03225616515,0.05497022762
3822.171708,0.01826762675,-0.03480617244,-0.01953554749,0.04389548317
3832.207708,0.01801041778,-0.04768561509,-0.03750287175,0.06328316067
3842.243708,0.02882724825,-0.0562324902,-0.04813486397,0.0794359385
3852.279708,0.03102771082,-0.05736465733,-0.01490630686,0.06690008023
3862.315708,0.02889953902,-0.04987137739,-0.02942611277,0.06471656473
3872.351708,0.02116103233,-0.03952041697,-0.01879938304,0.04861141275
3882.387708,0.01158356261,-0.026366813,-0.03706550002,0.0469386732
3892.423708,0.004212685903,-0.02685607877,-0.04724784136,0.05451012935
3902.459708,0.01602391077,-0.01751584612,-0.04845236778,0.05395556065
3912.495708,0.02491813334,-0.02165059503,-0.04351907194,0.05462207664
3922.531708,0.03677671381,-0.0436072918,-0.03559200168,0.06723773613
3932.567708,0.02564878405,-0.03463638391,-0.0243700254,0.049511992
3942.603708,0.03147749646,-0.04401455037,-0.02452146828,0.05940888683
3952.639708,0.02203044021,-0.03860602207,-0.03814372659,0.0585722555
3962.6757079999998,0.006276993997,-0.03513935409,-0.03544991434,0.05030776567
3972.711708,0.0200776392,-0.04054802857,-0.03769466043,0.05889093005
3982.7477080000003,0.009444878394,-0.03138401639,-0.03485174417,0.04784147034
3992.783708,0.01146987995,-0.04123408969,-0.03066162944,0.05264925279
4002.8197079999995,0.02766071503,-0.05039364338,-0.03096509993,0.06529526677
4012.855708,0.03211996842,-0.04791855354,-0.03276370347,0.06634259875
4022.8917080000006,0.0192624003,-0.04692606177,-0.03456289172,0.06138150229
4032.9277079999997,0.02429822342,-0.04986925777,-0.04668943226,0.07250689358
4042.963708,0.001547805949,-0.03565098546,-0.02842740834,0.04562352477
4052.999708,0.01262031278,-0.034804601,-0.02633468986,0.04543290036
4063.0357080000003,0.024383458,-0.02685180299,-0.02543772697,0.04430180924
4073.0717079999995,0.02682620772,-0.03191490702,-0.0356171447,0.05483418375
4083.107708,0.03268095166,-0.03948643003,-0.04100827754,0.06564222409
4093.1437080000005,0.04267066835,-0.04221393686,-0.04101178586,0.07269641657
4103.179708,0.02797379916,-0.04265244149,-0.03188135862,0.0601513527
4113.214708,0.0108014861,-0.04621504035,-0.03188194335,0.05717482285
4123.251708,0.004712044401,-0.02482270952,-0.04056388915,0.04778911354
4133.286708,0.01080457759,-0.0459761085,-0.04730280519,0.06684382416
4143.322708000001,0.01232203169,-0.03945576869,-0.03009152591,0.05112817305
4153.358708,0.03730709053,-0.02163944878,-0.03233685672,0.05390507443
4163.394708,0.01853705776,-0.03310222071,-0.04206896245,0.05664959954
4173.430708,0.03010747328,-0.0404874368,-0.03473772347,0.06125685201
4183.466708,0.02294089965,-0.04117653117,-0.03683511972,0.0598215483
4193.502708,0.02694992429,-0.03153107386,-0.03803496838,0.05627757864
4203.538708,0.02239021756,-0.03414777596,-0.04282734632,0.05917409939
4213.574708,0.02682071682,-0.02159712955,-0.03834077775,0.05153447481
4223.610708,0.02516089101,-0.03758301515,-0.03924475729,0.05988075183
4233.646708,0.02401923129,-0.04022124231,-0.03370802879,0.05771397586
4243.682707999999,0.02822896389,-0.03807366963,-0.03790106714,0.06068747492
4253.718708,0.03867291331,-0.04307852078,-0.02877297878,0.06464702224
4263.7547079999995,0.012790919,-0.04974800114,-0.02937348783,0.05917155578
4273.7907079999995,0.01231454566,-0.04855527878,-0.03880387723,0.06336405937
4283.8267080000005,0.001543632384,-0.03452930678,-0.02743104279,0.04412615932
4293.862708,0.004480921782,-0.03565865993,-0.04300100863,0.05604199703
4303.898708000001,0.01936193316,-0.03640830953,-0.04105973303,0.0581923632
4313.934708,0.03422698517,-0.04111297924,-0.02369818032,0.05850954902
4323.970708,0.04523442117,-0.04281974494,-0.03358055949,0.07076254229
4334.006708000001,0.03574564184,-0.03328498274,-0.04705137491,0.06781941365
4344.042708,0.01913511144,-0.05168507405,-0.03837001383,0.06715472679
4354.078708,0.02134406389,-0.0438138447,-0.03597733319,0.06057714547
4364.114708,0.01449852067,-0.02687245097,-0.03942134321,0.04986359417
4374.150708,0.01505190253,-0.02680458672,-0.03927399337,0.04987476511
4384.186707999999,0.007657889919,-0.03701462924,-0.03029617846,0.04844155742
4394.222708,0.02436588438,-0.0343166874,-0.02566109061,0.04929323409
4404.258708,0.02803182821,-0.03962866355,-0.0280631268,0.05606918452
4414.294707999999,0.02677767354,-0.02736343436,-0.03914476991,0.05475503951
4424.330708,0.01550096413,-0.04335750606,-0.03885065496,0.06024555263
4434.365707999999,0.006512229082,-0.04060127478,-0.04738525093,0.0627394186
4444.401708,0.01338521538,-0.05157441549,-0.02583299875,0.05921510068
4454.437708,0.01834703353,-0.0447844094,-0.03227136791,0.05816956379
4464.4737079999995,0.02755621889,-0.03615815833,-0.04679409742,0.0652414375
4474.5097080000005,0.0188410456,-0.03639709018,-0.03691698074,0.05515973749
4484.545708,0.02639331733,-0.03745887145,-0.0470999068,0.06571282577
4494.581708,0.02264654031,-0.02959228333,-0.04036683798,0.05493678758
4504.617708,0.0192905286,-0.03752549317,-0.03917400599,0.05757508034
4514.653708,0.009980281207,-0.02080753617,-0.03483595669,0.04178640273
4524.689708000001,0.008156818441,-0.02240989253,-0.04726187468,0.05293790483
4534.725708,0.00722627347,-0.04058088262,-0.0553479892,0.06901033959
4544.761958,0.02050298303,-0.04580248274,-0.03094931245,0.05895845723
4554.797958,0.02583620787,-0.04347879924,-0.04098079562,0.06509486332
4564.833958,0.02991041983,-0.0518326797,-0.03798819065,0.07088273787
4574.869958,0.01062091563,-0.05103782382,-0.03110367894,0.06070504223
4584.905958,0.01738114888,-0.03027180288,-0.02272461891,0.04165206706
4594.941957999999,0.01793371305,-0.03207618054,-0.02167679787,0.04266594646
4604.977958,0.009937866053,-0.03851666931,-0.04457917213,0.05974610937
4615.013958,0.02050507067,-0.03018844351,-0.03081073344,0.04776087666
4625.049958,0.02122309961,-0.03127781633,-0.03156268537,0.04924352607
4635.085958000001,0.0333328888,-0.01944944724,-0.03500552595,0.05210325633
4645.121958,0.03735350737,-0.02897956822,-0.03006755233,0.05602818567
4655.157958,0.01500919502,-0.04134562533,-0.04369098008,0.06199708388
4665.193958,0.01239024997,-0.04368871428,-0.02947230577,0.05413722248
4675.229958,0.0252458949,-0.0452011697,-0.03591301382,0.06300988425
4685.265958,0.02760401987,-0.03041067425,-0.03322270989,0.05282555702
4695.301958,0.0113840024,-0.03473268025,-0.03472018182,0.05041275249
4705.337958,0.01554038601,-0.04298229754,-0.03217956662,0.05589728086
4715.373958,0.01739375808,-0.04487781867,-0.03861793578,0.06170823602
4725.409958,0.02730792921,-0.02742007926,-0.04281214356,0.05771016705
4735.445957999999,0.01558545182,-0.02203282021,-0.03757303834,0.04626104933
4745.481958,0.02596513212,-0.02605906673,-0.03248420656,0.04907633565
4755.517958,0.03570647691,-0.0357614613,-0.04460957766,0.06740807834
4765.5539579999995,0.02711235583,-0.03195265811,-0.04251627445,0.05969661458
4775.588958,0.0224681477,-0.03311658293,-0.03772740483,0.05499893455
4785.624957999999,0.02834316047,-0.03829425585,-0.02425717413,0.05346209192
4795.660958,0.02518150929,-0.04284887139,-0.04746184945,0.06872234966
4805.696958,0.01394562989,-0.0417323821,-0.03009971201,0.05331102112
4815.732958,0.0256474867,-0.03424571682,-0.04387107432,0.06127996293
4825.768958000001,0.01160431109,-0.04412531856,-0.04177543223,0.06186186638
4835.804958,0.01489352065,-0.0293927471,-0.04342434704,0.05451077375
4845.840958,0.01609742009,-0.02786600254,-0.03743738294,0.04936799239
4855.876958,0.016899577,-0.02284415793,-0.03489559829,0.04500171146
4865.912958,0.02733676101,-0.02934845444,-0.04702272356,0.06180426208
4875.948958,0.0290950119,-0.01812497981,-0.03609544694,0.04977866913
4885.984958,0.02030520781,-0.02554951843,-0.0266668117,0.04214496652
4896.020958,0.02463598235,-0.03240157809,-0.04957035542,0.06414058017
4906.056958,0.02243950548,-0.03208370883,-0.03864366353,0.05501116713
4916.092958,0.01507005403,-0.03678055789,-0.02801868796,0.04863088363
4926.128957999999,0.01338291875,-0.02656660505,-0.03745024681,0.04782685442
4936.164958,0.025599286,-0.03438148186,-0.02982021511,0.05221738185
4946.200958,0.02391900179,-0.02685574986,-0.03940146267,0.05334627642
4956.2369579999995,0.01824463074,-0.02857132293,-0.03281282008,0.04717910773
4966.2729580000005,0.02197551978,-0.02035521749,-0.0295190835,0.04205513809
4976.308958,0.01568370675,-0.03538325608,-0.03700644314,0.05354839215
4986.344958,0.01012988542,-0.04044058599,-0.0305709976,0.05169759634
4996.380958,0.009687985521,-0.02553702001,-0.03251928985,0.04246764258
5006.416958,0.02113383821,-0.03766085621,-0.03656088531,0.05658336807
5016.452958000001,0.0224790861,-0.0339975756,-0.04150295198,0.05816905949
5026.488958,0.01380366132,-0.03563322455,-0.02144524813,0.04381970361
5036.524958,0.01869542595,-0.0311319283,-0.02069680452,0.04179800986
5046.560958,0.01694930117,-0.02804163828,-0.03461668611,0.04766473796
5056.596958,0.01678101214,-0.03577885676,-0.03042657137,0.04987489554
5066.632957999999,0.0140298355,-0.02462160185,-0.03357237339,0.04393362968
5076.668958,0.02107937231,-0.02973086234,-0.04136027992,0.0551265532
5086.704958,0.02640554852,-0.01903093278,-0.03133347452,0.04517981873
5096.740957999999,0.01186738555,-0.03126882624,-0.03986690104,0.05203791053
5106.776958,0.0007097551928,-0.04014453415,-0.03612819135,0.0540123466
5116.8129579999995,0.02257374933,-0.03053945918,-0.03942192793,0.05473866209
5126.8489580000005,0.02019189288,-0.03457484197,-0.03702749312,0.05453592836
5136.884958,0.017534057,-0.03861523144,-0.03358465254,0.0540972101
5146.920958,0.01362533837,-0.030426681,-0.03927106977,0.05151358736
5156.9559580000005,0.02861810294,-0.02882194921,-0.04106616497,0.05775924582
5166.991958,0.02136438525,-0.03523616206,-0.03238480389,0.05240991888
5177.027958,0.02080899112,-0.02575676568,-0.04271507978,0.05404630543
5187.063958000001,0.02680517145,-0.03491332266,-0.04167135179,0.06061319061
5197.099958,0.0147970256,-0.02312880769,-0.02715505421,0.03861723296
5207.135958,0.0126528973,-0.03799813092,-0.03314552665,0.05198634148
5217.171958,0.02791921449,-0.02859321345,-0.05171102107,0.0653535316
5227.207958,0.03578678705,-0.03344044559,-0.03479911923,0.06008274484
5237.243958,0.01962245174,-0.02843497317,-0.02342453063,0.04174083069
5247.279958,0.01420929021,-0.03889052566,-0.02088040709,0.04637206395
5257.315958,0.02018462041,-0.03683789715,-0.03285433531,0.05332782497
5267.351958,0.009017110029,-0.03501502767,-0.03689710021,0.05166000813
5277.387958,0.01959697067,-0.02738876011,-0.01698791564,0.03771968607
5287.423957999999,0.02346068058,-0.03049407016,-0.04692682922,0.06068293952
5297.459958,0.02856194683,-0.03178593937,-0.05156893373,0.06697376855
5307.4959579999995,0.02965500842,-0.03069941707,-0.04243909121,0.06019094779
5317.531958,0.02245150141,-0.02786344439,-0.02986523867,0.04660873233
5327.5679580000005,-0.0005642203364,-0.01777513359,-0.03839924991,0.04231756269
5337.603958,0.01614499839,-0.02471139316,-0.04648536444,0.05506544317
5347.639958000001,0.0160498715,-0.0291388683,-0.0405001545,0.0524112062
5357.675958,0.02280923909,-0.0277239152,-0.03900560617,0.05301239643
5367.711958,0.01616224425,-0.0295954993,-0.03182288647,0.04636602011
5377.747958,0.01363671874,-0.03196603362,-0.0408094722,0.05360224272
5387.783958,0.01418676015,-0.03500461232,-0.02599379718,0.04585045844
5397.819958,0.008486220535,-0.03815180305,-0.03257951617,0.05088222567
5407.855958,0.01572012508,-0.04055259671,-0.04245897174,0.0607815738
5417.891958,0.02469541838,-0.03150552884,-0.03138434529,0.0508668769
5427.927957999999,0.01401547671,-0.04247892536,-0.02584878623,0.05166287291
5437.963958,0.0158608534,-0.02655110992,-0.03887404382,0.0496761451
5447.999957999999,0.01351931076,-0.03381601956,-0.03648077846,0.05154747461
5458.035958,0.02428947086,-0.0294012621,-0.0361837399,0.05257067283
5468.071958,0.01769123632,-0.02481828757,-0.04322203338,0.05288734641
5478.107958,0.01810373454,-0.03257089153,-0.03394250214,0.05040537304
5488.143958000001,0.01585802686,-0.02217728298,-0.03948273897,0.04798120021
5498.179958,0.01929177799,-0.04113998607,-0.03319756687,0.05627388024
5508.215958,0.02362370598,-0.03716654722,-0.03334959447,0.05524153481
5518.251958,0.01960085587,-0.03349855229,-0.03185504615,0.05021046228
5528.287958,0.0145419294,-0.03008619033,-0.04502706885,0.05607212756
5538.323958,0.004407176915,-0.03094156489,-0.03215033054,0.04483801289
5548.3600830000005,0.02518689056,-0.03756985892,-0.03948390841,0.0600404262
5558.396083,0.01559434256,-0.01880051594,-0.03739002049,0.04466157803
5568.432083000001,0.01808907425,-0.01139457878,-0.03933831275,0.04477224455
5578.467083,0.01588676387,-0.02868388183,-0.041286605,0.0527232216
5588.503083,0.01760404086,-0.02281185206,-0.024372949,0.03774021055
5598.539083000001,0.02372073093,-0.03323615849,-0.02452380717,0.04763121272
5608.575083,0.02602824551,-0.03423329148,-0.02677089214,0.05065637646
5618.611083,0.01476034117,-0.0320694197,-0.02722229719,0.04457991494
5628.647083,0.01886452126,-0.02659521986,-0.03740346909,0.04962051371
5638.683083,0.01119841497,-0.02414487105,-0.04608716905,0.05322035745
5648.719083,0.01465433412,-0.02861916047,-0.02902323961,0.04331459675
5658.755083,0.01126006883,-0.02706091404,-0.02663055897,0.03960137485
5668.791083,0.02001437507,-0.02907743599,-0.04609243155,0.05805673724
5678.827083,0.01660045994,-0.03724292647,-0.04160352409,0.05825344676
5688.863083,0.01882615461,-0.03375217527,-0.03202520013,0.05019209974
5698.899082999999,0.01460011033,-0.03466010168,-0.0311270678,0.04881987526
5708.935083,0.01342627037,-0.03561769288,-0.03456756949,0.05141791169
5718.971082999999,0.01781684639,-0.02965682197,-0.02528628409,0.04285280934
5729.0070829999995,0.01303086726,-0.02619921718,-0.02199371696,0.03660500058
5739.0430830000005,0.01445085901,-0.03330384001,-0.0311270678,0.04782120279
5749.079083,0.01828897251,-0.03056993779,-0.05073745966,0.06199433381
5759.115083000001,0.02366786844,-0.02817104448,-0.04609710932,0.05898066828
5769.151083,0.01772175262,-0.02726750348,-0.02828473628,0.04309992538
5779.187083,0.02337442044,-0.03015928052,-0.03232925534,0.05001126357
5789.223083000001,0.007239811716,-0.01829805739,-0.04580240965,0.04985072224
5799.259083,0.01489273036,-0.01936784204,-0.03442548215,0.04221398518
5809.295083,0.0238876598,-0.01940212134,-0.03262804806,0.04485144506
5819.331083,0.002137299219,-0.02246306565,-0.02918345332,0.03688944719
5829.367083,0.02930365015,-0.02562721331,-0.04040893793,0.05611007252
5839.403082999999,0.02284135766,-0.03137652464,-0.03247368157,0.05060389227
5849.439083,0.006920420694,-0.03515108507,-0.02408994377,0.0431719399
5859.475083,0.0281288052,-0.03079512868,-0.02453959465,0.04839174865
5869.511083,0.02022917802,-0.02916346315,-0.03471784294,0.04964932874
5879.547083,0.01881604304,-0.02360148199,-0.04399971306,0.05335773775
5889.5830829999995,0.03072875365,-0.01456311185,-0.02184753656,0.04041850296
5899.6190830000005,0.02921865082,-0.004203672968,-0.03082944453,0.04268319426
5909.655083,0.02226650099,-0.02736116856,-0.03846532345,0.05219206567
5919.691083,0.00909441376,-0.02777189892,-0.03307769895,0.04413752257
5929.727083000001,0.02118119837,-0.02659251552,-0.03951372921,0.05212619152
5939.763083,0.009194131057,-0.03494910032,-0.03577209592,0.05084893809
5949.799083,0.01518801589,-0.03704635039,-0.03247894406,0.05155569524
5959.835083,0.02006622114,-0.03237606961,-0.03622233152,0.05256348938
5969.871083,0.02425547022,-0.03631095339,-0.0327783215,0.05460065505
5979.907083,0.01913941576,-0.02822874919,-0.02693987668,0.04346189678
5989.943083,0.0241902258,-0.02313282765,-0.04699874997,0.05769902285
5999.979083,0.02130646812,-0.0264111422,-0.04235898435,0.05427520218
6010.015083,0.009845546284,-0.02759516682,-0.04505338132,0.05374230347
6020.051083,0.01651080225,-0.02036248997,-0.03412785888,0.04303426937
6030.087082999999,0.02323052641,-0.02579168452,-0.04341206789,0.05558305485
6040.122083,0.004015603329,-0.02991881378,-0.04146786869,0.05129175978
6050.158083,0.01156675986,-0.02734570999,-0.03518211186,0.04603649404
6060.194082999999,0.01776801986,-0.0216174669,-0.04206896245,0.05052538972
6070.230083,0.01758180088,-0.02443090953,-0.03488448858,0.04607511917
6080.2660829999995,0.0150774407,-0.02833281135,-0.02305907965,0.03951959731
6090.3020830000005,0.01707840016,-0.02977166494,-0.03368873298,0.04809318575
6100.338083,0.01751530594,-0.02282202987,-0.05449721932,0.0616244911
6110.374083,0.01020746038,-0.02960971534,-0.02141952038,0.03794368648
6120.410083000001,0.02794966113,-0.02198807074,-0.04312380016,0.05589562552
6130.446083,0.0215422845,-0.02346571695,-0.03219710827,0.04529198245
6140.482083,0.01663526915,-0.02671157945,-0.04372489393,0.05387120757
6150.518083,0.01693008188,-0.03238303145,-0.03983298719,0.05405511324
6160.554083,0.01932596364,-0.0253095085,-0.03519439101,0.04746271431
6170.590082999999,0.00596330915,-0.02167562842,-0.02217264175,0.03157562297
6180.626083,0.01532398535,-0.02561964847,-0.03130657732,0.04325844078
6190.662083,0.004983666982,-0.02524259442,-0.03504645646,0.04347734606
6200.698083,0.01131191719,-0.02739495451,-0.03759408832,0.04787231433
6210.734083,0.003340097745,-0.03406191325,-0.02517226338,0.04248544493
6220.770082999999,0.01354349106,-0.02592361232,-0.03295783103,0.04406448061
6230.806083,0.01804381543,-0.02257237203,-0.02008635521,0.03519308057
6240.8420830000005,0.01971982615,-0.0304259501,-0.03984292746,0.05387085345
6250.878083,0.01870096139,-0.02604868792,-0.03744907737,0.0493020638
6260.914083000001,0.01596451699,-0.02612329474,-0.02891915917,0.04211425053
6270.950083,0.01181940526,-0.03280381171,-0.03895005763,0.05227710199
6280.986083,0.009912892047,-0.02234288709,-0.03610538721,0.04360125019
6291.022083,0.01843227497,-0.03427984994,-0.04119597316,0.05667420116
6301.058083,0.01395967805,-0.03539136909,-0.03985169828,0.05509609308
6311.094083,0.009497867643,-0.02600163611,-0.03491021633,0.04455353829
6321.130083,0.01359228219,-0.02785995433,-0.02488399565,0.03975098024
6331.166083,0.02781000175,-0.02732411183,-0.04195143342,0.05727063865
6341.202083,0.01169100749,-0.02307419105,-0.03012777865,0.03970870175
6351.238083,0.01970911615,-0.03236112267,-0.001484608054,0.03791959363
6361.274082999999,0.08358765624,-0.06231476393,0.4739127356,0.4852456152
6371.310083,0.08136658223,-0.05696364798,0.3916067433,0.4040064595
6381.346083,0.07340553874,-0.06963299286,0.132348218,0.1665928498
6391.3820829999995,0.05186805535,-0.04600888945,-0.09338880479,0.1163124324
6401.4180830000005,0.02537393751,-0.03039569076,-0.3854835391,0.387511669
6411.454083,-0.01108924448,-0.0168726524,-0.5616005051,0.5619633307
6421.490083,-0.05153411538,0.0006442900747,-0.6085682648,0.6107466849
6431.526083,-0.03264363911,0.02276313744,-0.333203584,0.3355717449
6441.562083,0.06218842295,-0.03615954705,0.01644295514,0.07379216466
6451.598083000001,0.02080630734,-0.00981151823,0.1295848238,0.1316107704
6461.634083,0.06677127415,-0.03906893883,0.4134753299,0.4206502507
6471.670083,0.0764667617,-0.04454310212,0.4884109068,0.4963632415
6481.706083,0.09131713629,-0.0821393466,0.5309189951,0.5449409794
6491.742083,0.06820154878,-0.08836103987,0.2963117462,0.3166382409
6501.778082999999,-0.004809407964,-0.1702349229,0.02777252018,0.1725525203
6511.814083,-0.5504604629,-1.677907063,0.117366482,1.769789175
6521.850083,-0.308679119,-1.544781312,0.5278579777,1.661404871
6531.886082999999,0.6167911311,1.047194662,0.5151888156,1.320025559
6541.922083,0.634485025,1.344807706,0.4644361532,1.557812554
6551.957583,0.394311446,0.1758870243,0.3543944782,0.5585814246
6561.9935829999995,0.1006037573,0.03274470001,-0.01129155815,0.1063993921
6572.029583,-0.5667928326,0.5194639708,-6.15787822,6.205687803
6582.0655830000005,-0.2698745474,0.2209822863,0.5927041841,0.6877235578
6592.101583,0.4716117466,0.2942161407,3.166090105,3.2145151
6602.136583,-0.0560602897,0.3053784023,-0.788681218,0.8475947076
6612.1725830000005,-0.4495679263,0.1114871067,-2.309367762,2.355359878
6622.208583,-0.3059756954,0.3874797785,2.125203858,2.181800436
6632.244583000001,-0.423666844,-0.1831789773,-1.617700623,1.682261406
6642.280583,-0.7185663781,-0.2722865238,0.3434800655,0.84169837
6652.316583,-0.779209021,0.09400754984,-0.6313648045,1.007286272
6662.352583,-0.825936314,0.07724676199,-1.547321196,1.755659631
6672.388583,-0.5299967431,0.07024263818,-0.9480599445,1.08841547
6682.424583,-0.2771818311,-0.2667560446,-0.3401190859,0.5134876312
6692.460583,-0.2496524454,-0.6361861262,-0.6191716057,0.9221890305
6702.496583,-0.07664965164,-1.131527665,1.029238009,1.531522414
6712.532583,1.262193273,-0.4753335724,2.671715623,2.992847847
6722.568583,1.24203602,0.08876570374,1.320365614,1.814909965
6732.604582999999,0.8713738574,0.1939831334,0.6013516313,1.07635758
6742.640583,0.7088371959,-0.1193587746,-0.223378256,0.752724739
6752.676583,0.1210987232,-0.7778834572,-1.052237447,1.314142769
6762.7125829999995,-0.5926897122,-1.08407232,-1.236686695,1.7481098
6772.7485830000005,-0.7467498113,-0.5599364972,-0.8904379731,1.289978273
6782.784583,-0.6754960799,0.03367276277,0.8701346862,1.102072221
6792.820583,0.5181852943,0.5046865585,1.239084638,1.434766623
6802.856583,0.3815971872,-0.4033313609,-0.2875450158,0.6252797263
6812.892583,0.1912420136,0.2890455941,-0.2027270597,0.4015210131
6822.928583000001,0.378413963,0.7428195322,1.480606804,1.699168766
6832.964583,0.3833394382,0.3792160548,1.592241846,1.681067529
6843.000583,1.035048899,-0.1624808206,1.831094758,2.109652638
6853.036583,1.783710969,-0.1719844829,4.685436468,5.01642486
6863.072583,0.3523778466,-0.2812076208,2.604477906,2.643208852
6873.108582999999,0.5651818516,0.1141267226,1.20467202,1.335548618
6883.144583,0.5434483358,0.4362064904,2.201464999,2.309125448
6893.180583,0.7031184728,0.5458014381,3.352240309,3.468398749
6903.216582999999,1.366447082,-0.5454892333,2.472307443,2.876984571
6913.252583,1.566344235,-1.67597222,2.216239159,3.189676026
6923.288583,1.939408581,-1.627341512,3.254642093,4.123377401
6933.3245830000005,2.658241884,-0.4631889421,3.500744383,4.419955333
6943.360583,3.050754946,0.4100012067,3.255243187,4.480157914
6953.396583,2.6503651,0.2279925862,3.246588723,4.197231721
6963.432583000001,1.547732255,-0.9624468724,2.649534211,3.215868568
6973.468583,-0.8074028331,-2.074881112,3.690333919,4.309941461
6983.504583,-2.67573383,-2.536088287,3.744093804,5.254477495
6993.540583,-4.039848896,-2.638911282,2.91510539,5.637558983
7003.576583,-4.763495627,-2.576456002,1.968245879,5.76220513
7013.612582999999,-5.311580878,-2.532997156,1.368135611,6.041585973
7023.648583,-5.817618216,-2.584656722,1.309220236,6.499168386
7033.684583,-5.300807968,-2.398639835,1.423636798,5.989889807
7043.720583,-3.91815372,-2.254788682,1.307095065,4.705794097
7053.756583,-1.932600083,-1.989772257,0.8951531678,2.914693107
7063.7925829999995,0.06803703189,-1.401698775,0.3357594019,1.442956296
7073.828583,1.344271955,-1.082217145,-0.2225976527,1.74006056
7083.8645830000005,2.091658967,-0.8798920812,-0.683190431,2.369809375
7093.900583,2.338601502,-0.460620845,-0.8600026309,2.53393628
7103.936583000001,2.426797979,-0.1880869474,-0.9123738027,2.599452074
7113.972583,2.435526118,0.2196793073,-0.6867019764,2.540001195
7124.008583,2.31291059,0.5134018334,-0.4045565718,2.403498047
7134.044583,2.090733352,0.6342205115,-0.1125451604,2.187708395
7144.080583,2.065822459,0.8881952005,0.07435553312,2.249898196
7154.116583,1.66384334,1.044651854,1.752737098,2.632823483
7164.152583,3.0826556,1.579081664,3.495317875,4.92072266
7174.188583,2.779819531,1.506375776,2.235745178,3.872353432
7184.224583,2.80986311,1.939494096,2.236087532,4.081305612
7194.260583,2.307073315,1.885195828,0.5502802956,3.029745698
7204.296582999999,2.955646475,2.44200454,0.03766483963,3.834142786
7214.332583,2.585456913,2.740101734,-1.059875665,3.913576547
7224.368583,2.149416009,2.626546467,-2.341785895,4.123432636
7234.404583,1.383041334,2.014969956,-3.037508079,3.89863599
7244.4405830000005,0.722719363,1.381959745,-3.214650646,3.572970024
7254.476583,2.417960497,1.974297893,-2.770367507,4.173646039
7264.512583,5.077273006,3.124368175,0.1481631821,5.963415968
7274.548583,1.541045964,2.422606987,2.934410557,4.105436956
7284.584583,-2.589696729,1.518533161,2.026890528,3.622258594
7294.619583000001,-1.930200385,0.9349528259,0.440632723,2.189513076
7304.655583,-1.529959643,0.7242118648,-1.085939044,2.011099933
7314.692583,-1.508350673,0.4358457537,-2.034181421,2.569625912
7324.728583,-0.8104030395,0.7037099918,-2.418138252,2.645629121
7334.763583,0.1026309139,1.550825286,-2.751105609,3.159774398
7344.799583,0.176095916,0.3880953442,-2.536268966,2.571825817
7354.835583,1.070262074,0.2392672605,-1.765236399,2.078164881
7364.871583,1.268512505,1.069740941,-0.8993964922,1.887427802
7374.907583,0.5136574298,1.822158897,-0.3105140483,1.918469696
7384.943583,-0.5467988634,1.994561711,-1.091599149,2.338558128
7394.979582999999,-1.46057132,1.896582989,-1.776639639,2.981064243
7405.015583,-1.712902649,1.987053448,-1.495497324,3.01975647
7415.051583,-1.386923885,1.252114866,-1.719497139,2.53929516
7425.0875829999995,-1.211855909,0.3595036291,-1.65310259,2.081005953
7435.1235830000005,-1.31335948,0.7687678673,-0.04397866309,1.522449106
7445.159583,-0.8889536574,0.570981047,-0.1799767131,1.071750707
7455.195583,-1.102398371,0.07058744118,-0.2618049878,1.135256186
7465.231583,-1.726856444,0.06116227772,0.5242648637,1.805720812
7475.267583,-1.945118971,-0.3260665091,0.8399548674,2.143672401
7485.303583,-2.15719339,-0.3675506403,1.062391137,2.432540179
7495.339583,-2.447033438,0.1413408976,1.766567225,3.021375458
7505.375583,-2.696747261,0.5857875127,2.18819065,3.521898795
7515.411583,-2.775913591,0.4191341555,2.311696123,3.636661748
7525.447583,-2.33413189,0.2243340016,2.361530188,3.327960675
7535.483583,-1.839435957,0.5697281349,2.156443192,2.891083193
7545.519583,-1.177775559,1.2076761,1.762726189,2.439844349
7555.555708,-0.4777659776,1.351302062,1.343217117,1.964308992
7565.591708,-0.007548974678,1.23185134,0.7285566384,1.431191632
7575.627708,0.06872992694,0.9852273323,-0.234147073,1.014998301
7585.663708,-0.1702855196,0.8435840879,-0.9154079229,1.256424664
7595.699708,-0.136649311,0.6432370643,-0.9629960722,1.166099648
7605.735708,0.1172117866,0.4902820158,-1.024607599,1.141900079
7615.771707999999,0.02334358323,0.04606948122,-0.8018544102,0.8035159084
7625.807708,0.1927957101,0.09046541624,-0.1109199268,0.2401195692
7635.843708,0.8730092505,0.5042910674,-0.1152480358,1.01475945
7645.8797079999995,2.236345102,0.6594180641,-0.863780517,2.486400688
7655.915708,3.024388096,0.4382204542,-1.915767118,3.606816349
7665.951708,2.721959578,0.3039623163,-2.34655313,3.606628429
7675.987708,2.334632996,-0.06863469042,-2.868966765,3.699485403
7686.023708,2.14104148,-0.4792586256,-3.639464897,4.249641418
7696.059708,2.314083688,-0.5797449269,-4.54298543,5.131257557
7706.095708000001,2.555744871,-0.8823976131,-5.104731531,5.776568307
7716.131708,2.799878989,-1.198929323,-5.497749208,6.285061672
7726.167708,3.035801277,-1.197036141,-5.998766711,6.828922827
7736.203708,3.179773759,-0.9183284609,-6.733237224,7.50271763
7746.239708,3.20039952,-1.047812859,-7.110264519,7.867422094
7756.275708,3.062363423,-1.714850649,-7.01941633,7.847992616
7766.311708,3.029674564,-2.273402123,-6.671634468,7.671896223
7776.347708,2.667038435,-2.59427393,-6.126678062,7.167951961
7786.383707999999,1.489609324,-2.981556657,-5.617532929,6.531867439
7796.419708,0.8112513243,-3.329657192,-5.030580651,6.086993298
7806.4557079999995,0.9430048804,-3.07350003,-4.911657055,5.870267086
7816.4917080000005,0.9836544313,-2.913338069,-4.637789261,5.564548857
7826.5277080000005,1.001032064,-2.88232356,-4.272957503,5.2505257
7836.563708,0.9038678581,-2.985521946,-3.58397482,4.751336013
7846.599708000001,0.5395983097,-3.307065597,-3.015918989,4.508172196
7856.635708,0.03821301609,-3.598782017,-3.160389655,4.789650823
7866.671708,-0.8256094547,-3.340425425,-3.946591653,5.235996435
7876.707708,-1.939480501,-2.831284676,-4.579216533,5.722497845
7886.743708,-2.922016214,-2.521583099,-4.643912466,6.038417265
7896.779708,-3.482130357,-2.347525814,-4.150295198,5.904325491
7906.815708,-3.491414566,-2.499030388,-3.172083501,5.338280837
7916.851708,-3.340476003,-2.457715716,-1.923613497,4.571590025
7926.887708,-3.2060491,-2.407876974,-0.9902347416,4.130034769
7936.923708,-2.687980823,-1.965731576,-0.3951542491,3.353429351
7946.959707999999,-1.887466302,-1.499861101,0.1169016284,2.413664922
7956.995708,-0.9290715502,-1.306862639,0.4698611999,1.670878047
7967.031708,-0.1384901333,-1.335905174,0.7213382506,1.524516652
7977.067708,0.178522072,-1.76837226,1.365293865,2.241213492
7987.103708000001,0.08160447255,-2.239653749,1.707771717,2.817657261
7997.139708,-0.5985413133,-2.049366056,1.367690638,2.535494156
8007.175708,-1.543649876,-1.63458095,0.7495183218,2.36991298
8017.211708,-2.436772159,-1.430999612,0.7337799561,2.919597827
8027.247708000001,-2.866064792,-1.334770229,1.484665942,3.492874449
8037.283708,-2.759213066,-1.553709864,2.607454138,4.101961502
8047.319708,-2.546181458,-1.936955089,3.499394846,4.741371038
8057.355707999999,-2.419344241,-2.049488263,3.957577402,5.071099248
8067.391708000001,-2.236861411,-1.922849851,4.211523732,5.1417733
8077.427708,-2.159225882,-1.702646633,4.332191552,5.13119339
8087.463707999999,-1.853905916,-1.201917982,3.940011781,4.517218925
8097.499708000001,-1.378162124,-0.6338557184,3.351569633,3.678875224
8107.535708,-0.8376674366,-0.1281464088,2.563376657,2.699816313
8117.5717079999995,-0.5122967827,-0.03574402928,1.986889726,2.052183328
8127.607708,-0.5627170309,-0.1298608124,1.580527242,1.682730118
8137.6437080000005,-0.9608097982,-0.2239553761,1.100892421,1.47826777
8147.679708,-1.331316864,-0.3656497836,0.852387802,1.622550252
8157.715708,-1.623523865,-0.6665732288,0.8734021103,1.960352227
8167.751708000001,-1.71261292,-0.9881753522,1.032981396,2.230825879
8177.787708000001,-1.584264197,-1.421637635,1.268925903,2.478128237
8187.823708,-1.199246973,-1.739946021,1.052446485,2.36077298
8197.859708,-0.9339830652,-1.706552573,0.6181816721,2.041272796
8207.895708,-0.9452681914,-1.692323958,0.2469325948,1.95409008
8217.931708,-1.120297283,-1.832263616,0.03899727389,2.147970379
8227.967708,-1.407479187,-2.165405805,0.3573606245,2.607237345
8238.003708,-1.588172184,-2.716227552,1.097480132,3.332363372
8248.039708,-1.446290958,-2.763126315,1.514304893,3.466950227
8258.075708,-1.295194227,-2.407955326,1.845496012,3.298731949
8268.111707999999,-1.042246017,-1.910996375,2.111503247,3.032594577
8278.147708,-0.6041308129,-1.16030978,2.115783409,2.487535378
8288.183708,-0.2292222556,-0.30658355,1.999783421,2.036091856
8298.219707999999,0.05310382783,0.6331768566,1.803002395,1.911687889
8308.255708,0.3772880816,1.364847722,1.7478766,2.249495101
8318.291708,0.6315593706,1.883149595,1.896651986,2.746344551
8328.327707999999,0.9075823018,2.161137922,2.193751352,3.21041551
8338.363707999999,0.9694269861,2.284934587,2.359785379,3.424806824
8348.399708,0.4882316896,2.349008376,2.557773271,3.506909556
8358.435708,-0.2632518813,2.052206633,2.872159053,3.539795367
8368.471708,-0.7925285397,1.406095735,3.279782782,3.655431821
8378.507708000001,-0.9851760229,0.7911540055,3.560996432,3.778517176
8388.543708000001,-0.9247896342,0.2692742211,3.576044827,3.703490391
8398.579708,-0.5657515897,-0.01960279047,3.120959541,3.171883917
8408.615708,-0.05491178691,-0.01637395799,2.333702266,2.334405637
8418.651708000001,0.657638391,-0.05799853206,1.394228811,1.542636075
8428.687708,1.528098767,-0.4126467794,0.5785667861,1.685260435
8438.723708,2.140818847,-0.9426495159,-0.1305377738,2.342804635
8448.759708000001,2.453463621,-1.349125729,-0.7449573474,2.897341095
8458.795708,2.633815433,-1.36433843,-1.215546087,3.205613104
8468.831708,2.846939719,-1.041972075,-1.742694651,3.496820873
8478.867708,2.778087293,-0.5537196279,-2.006972573,3.471644184
8488.903708,2.636686416,-0.2145846283,-2.095197555,3.374613254
8498.939708,2.374882305,0.09736841977,-1.894366748,3.039436123
8508.975708,1.813035632,0.1176565039,-1.201921782,2.178429991
8519.011708,1.331579696,0.3331907201,-0.7453913569,1.56196313
8529.047708,0.9937266257,0.500903483,-0.2625445144,1.143383806
8539.083708,0.7874253092,0.7283847302,0.2313978584,1.097327618
8549.119958000001,0.9783185546,1.070493039,0.6791706164,1.601354198
8559.155958,1.22111059,1.498529105,0.7856447589,2.086609268
8569.191958,1.139247013,1.908023651,0.7863686442,2.357289471
8579.227958000001,0.9646688875,2.031364233,0.6017400326,2.327899864
8589.263958,0.5114508368,1.875140079,0.5231807899,2.012821506
8599.299958,-0.3432548015,1.459009529,0.5684404318,1.603015031
8609.335958000001,-1.336591345,0.8561042923,0.821063683,1.787046881
8619.371958,-2.098432674,0.372931906,0.9320097761,2.326185744
8629.407958,-2.465660913,0.07727387846,0.815943861,2.598310869
8639.443958,-2.49908389,0.1047388351,0.2958036232,2.518708061
8649.479958,-2.532662403,0.1578333074,-0.1776932292,2.543789513
8659.515958,-2.716943251,0.1329656839,-0.8306905389,2.844205913
8669.551958,-2.83755143,0.3792135698,-1.508453,3.235881874
8679.587958,-2.777758387,0.9072072029,-1.816788375,3.440884562
8689.623958,-2.357703186,1.334634574,-1.629265977,3.161411296
8699.659958,-1.636136017,1.482615908,-1.098330317,2.466053625
8709.695957999998,-1.158829045,1.481846414,-0.6138594103,1.978781678
8719.731958,-1.169733299,1.390880696,-0.4751763189,1.878461507
8729.767958,-1.061855313,0.830457235,-0.6025813007,1.476583946
8739.803958,-1.276985121,0.4395106423,-0.6844491903,1.514044681
8749.839958,-1.610663352,0.09309702873,-0.5517643189,1.70509453
8759.875958,-1.603338253,-0.2045274174,-0.1447931394,1.622803152
8769.911958,-1.378727404,-0.4956632084,0.4874621961,1.544082466
8779.947957999999,-0.9222509193,-0.7649549711,0.8183963294,1.451025643
8789.983958,-0.6706455222,-0.5852653563,0.8032157882,1.198939763
8800.019958,-0.7283686504,-0.5505714869,1.014776237,1.36507167
8810.055957999999,-0.1824986172,-0.5260897797,1.804970422,1.888913557
8820.091958,-0.2773462657,-0.1711877632,1.789720737,1.819155441
8830.127958000001,-0.8656500911,-0.1232429338,1.724647074,1.933635548
8840.163958,-0.8386525463,-0.360279116,2.088495915,2.279244244
8850.199958,-0.4463331004,-0.3169746369,1.985664296,2.059744851
8860.235958000001,-0.2223983905,-0.1343865573,2.086243568,2.102363673
8870.271958,-0.4318271086,-0.4746646875,1.910629462,2.015511389
8880.307958,-0.01534656566,-1.035275844,0.7807807526,1.296784552
8890.343958000001,-0.0260797878,-0.7221539372,-0.4150539319,0.8333404051
8900.379958,0.06937505756,-0.6647588378,-1.121748269,1.305770421
8910.415958,1.010028517,-0.6980452824,-1.376262656,1.844322022
8920.451958,3.268385974,-0.3629156256,-1.963174442,3.829896672
8930.487958,3.857573057,-0.05785352111,-1.714945081,4.221996395
8940.523958,2.224358602,-1.396327962,0.344770546,2.648843087
8950.559958,1.278185408,-3.012238752,2.618662666,4.19103023
8960.595958,0.6554799644,-2.065426018,1.734849881,2.775849911
8970.631958,0.9501533208,-1.570539905,-0.1416755502,1.841048312
8980.667958,1.328672461,-1.096821297,-0.2786302046,1.745285723
8990.703958,0.5135556883,-0.4438364124,0.440689441,0.8092820209
9000.739958,0.05657743938,-0.9418402612,0.5357156123,1.085013964
9010.775958,-0.004014625177,-0.9920444548,0.7144421907,1.222536691
9020.811958,-0.1373935611,-0.3036716366,0.1333574474,0.3589953513
9030.847958,-0.213731885,0.2857230234,0.05521540359,0.3610646834
9040.883958,-0.4851799547,1.031442409,0.4677442154,1.232094835
9050.919958,-0.733245009,1.538564406,0.7462669775,1.860576007
9060.955957999999,-0.7177233557,1.772575824,0.8673724616,2.099877819
9070.991958,-0.7534323017,1.682962566,0.6199565944,1.945345576
9081.027958,-0.9022606777,1.630985497,0.1862279713,1.873197501
9091.063957999999,-0.6330407627,1.470849556,-0.2824073598,1.626005209
9101.099958,-0.3248061052,1.101019598,-0.5583583702,1.276521535
9111.135958,-0.2113840087,1.326491157,-0.01238294095,1.343285273
9121.171957999999,0.08417505473,1.254436503,0.8742210129,1.531325818
9131.207957999999,0.3799979737,0.7222697121,0.929314502,1.236809379
9141.243958000001,1.052835471,0.8928400093,0.789080729,1.590054781
9151.279958,0.8952408761,1.403244048,0.3870296891,1.708900836
9161.315958,1.147015404,1.055114277,-0.2677267554,1.58132479
9171.351958000001,0.8214110076,0.8716245568,-0.4294715577,1.272356566
9181.387958,0.6119080482,1.263610784,0.3024497147,1.436182267
9191.423958,0.6769210464,0.7213727492,0.7467382631,1.239442931
9201.459958,0.9740509643,0.4001261365,0.9206302173,1.398726636
9211.495958,0.1952727368,1.696298311,1.170386871,2.070112274
9221.531958,-0.4711202516,1.715290067,0.1180646396,1.782726441
9231.567958,0.1851795655,-0.2525242871,-0.5161205694,0.603689017
9241.603958000002,0.09655361027,1.267664659,-0.05689793989,1.272608998
9251.639958,0.704197138,2.811836545,-2.758057948,4.001150086
9261.675958,0.684071314,1.625355797,-0.864206779,1.963819846
9271.711958,0.4611412472,0.6891580993,1.9874265,2.15347492
9281.747958,-0.004927010089,0.5047953898,1.826169648,1.894660456
9291.783958,-0.3706731266,0.7880093729,1.398908923,1.647817803
9301.819958,-0.7853361721,1.04161481,0.9929275306,1.639396046
9311.855958,-0.8434086715,0.7585639644,0.09633770183,1.138436835
9321.891958,-0.1923618467,0.2966444528,-0.4156117563,0.5456502024
9331.927958,0.1861105885,0.4906883973,-1.038348482,1.163434496
9341.963957999998,0.4798453206,0.225242933,-1.566708663,1.653953429
9351.999958,1.152130402,0.9140630633,-2.743002537,3.11239115
9362.035958,2.388036494,1.134634656,-2.484459711,3.628037232
9372.071957999999,0.4971887469,-0.6380475873,-0.133682516,0.8198612009
9382.107958,-1.169840449,-1.549626753,0.9496264136,2.16140234
9392.143958,-1.303296276,-1.410641946,2.054540842,2.812406434
9402.179957999999,-0.8692546072,-1.284156146,0.9497901356,1.818450407
9412.215958,-0.3508248992,-1.325127001,0.1476866706,1.378713543
9422.251958,-0.05746804342,-1.339384852,-0.5884906805,1.464095502
9432.287957999999,0.1560048831,-1.707098118,-0.7879333591,1.886626748
9442.323957999999,0.2029885034,-2.134958183,-0.5575180157,2.215869381
9452.359958000001,-0.03364275925,-2.710900154,-0.2317158373,2.720993148
9462.395958000001,-0.1254475533,-3.342781268,0.07248087924,3.345919481
9472.431958,-0.124292582,-3.637957485,0.1025496376,3.64152437
9482.467958000001,-0.1637215997,-3.726554496,0.07169150513,3.730838089
9492.503958000001,-0.1995346262,-4.014732766,-0.1325575848,4.02187329
9502.539958,-0.1171752781,-3.866459656,-0.07197337747,3.8689043
9512.575958,-0.01513961077,-3.99746126,0.03247890752,3.99762187
9522.611958000001,-0.07651184008,-3.683820705,0.2696665327,3.694470069
9532.647958,-0.1845783987,-0.01437128663,0.02236446697,0.1864829443
9542.683958,0.1205269021,0.5202139127,0.2438429626,0.5870337635
9552.720083,-0.0336923144,-0.05230392873,0.145509131,0.1582522676
9562.756083,-0.0347181353,0.03387175083,0.2147144731,0.2201248495
9572.792083,-0.07416506007,0.04705312908,0.1054603815,0.1372455652
9582.828083,-0.1110020071,0.07747443795,-0.02604817629,0.1378486184
9592.864083,-0.078326158,0.106746769,-0.04619885087,0.1402290752
9602.900083,-0.08423520796,0.09109084904,-0.09931963563,0.1589260931
9612.936082999999,-0.0804046239,0.07583838701,-0.1140815163,0.1588425536
9622.972083,-0.08621105522,0.1004978496,-0.07078756213,0.1501434073
9633.008083,-0.1112284405,0.1678969502,-0.1156731284,0.2322529322
9643.044082999999,-0.1432569297,0.3441951799,-0.1023192573,0.3866032853
9653.080083,-0.1763569211,0.409560619,-0.275544227,0.5241815385
9663.116083,0.07795230165,1.490289794,0.2391405952,1.51136642
9673.152082999999,-0.4524448295,2.327753747,-0.3594575457,2.398406462
9683.188083,-0.1588891684,2.404564526,-0.6979985046,2.508859948
9693.224083000001,0.3346011416,1.49021378,0.09095343947,1.530022079
9703.260083,0.4396310218,1.011788163,0.03124167323,1.103615316
9713.296083,0.45799698,1.819614919,-0.1049025389,1.879298867
9723.332083000001,0.1720570249,3.05390601,-0.315054996,3.074931738
9733.368083,-0.005052725226,3.946998619,-0.4833203208,3.976483643
9743.404083,-0.001787201464,4.636349677,-0.6162871742,4.67713068
9753.440083,-0.01493846655,5.164759632,-1.038196528,5.26809427
9763.476083000001,0.1864510426,5.67195121,-0.9560185897,5.754977504
9773.512083,0.347528239,6.493191479,-0.6583848611,6.535731183
9783.548083,0.1477531827,7.37958084,-0.19874686,7.383735145
9793.584083000002,-0.2626810103,7.681323481,-0.4833237561,7.700995623
9803.620083,-0.3905209154,6.55184373,-1.856672233,6.821025922
9813.656083,-0.34068802,4.796278042,-2.716953192,5.522878418
9823.692083,-0.1237823028,0.5306207871,-1.836070008,1.915211098
9833.728083,4.543009989,-13.97652707,1.303253299,14.75400684
9843.764083,5.490619698,-23.4793167,3.564368229,24.37478078
9853.800083,-5.549114074,-20.12566019,1.320590439,20.91838484
9863.836083,-5.01897919,-10.65635874,-1.502658409,11.87459961
9873.872083,6.856004779,-2.236802062,-0.2182707131,7.214965495
9883.908083,5.73392468,2.086897579,-1.643245354,6.319279154
9893.944082999998,1.246796677,0.4952989268,-1.853940414,2.288431349
9903.980083,-0.8569885375,-1.526943065,0.5608640483,1.83862801
9914.016083,-1.288061209,-1.037799502,0.8734045954,1.870552077
9924.052082999999,-1.005636015,0.2490650743,0.6332968707,1.214249617
9934.088083,-0.7537417656,1.099620359,0.8252304089,1.567895663
9944.124083,0.05071801767,1.281547703,0.2714102089,1.310953979
9954.160082999999,0.3888490503,1.355287524,-0.1592747922,1.418934924
9964.196082999999,0.1321768945,0.9904358858,-0.1363442051,1.008475938
9974.232083,-0.05560994446,0.3690704048,-0.08499410346,0.3827916238
9984.268082999999,-0.3625959291,0.02269245923,-0.1551665385,0.3950536801
9994.304082999999,-0.1844397466,-0.3410797834,-0.3889759348,0.5492319334
10004.34008,0.1979864296,-0.4502367747,-0.5060825081,0.7057133162
10014.37608,0.4123283985,-0.1753024489,-0.3071894677,0.5432412225
10024.41208,0.4459469649,0.01170612574,0.02322528675,0.4467047603
10034.44808,0.4015967113,0.01758374691,0.1802695124,0.4405521578
10044.48408,0.2468994118,0.09607793927,0.1171464805,0.2896784215
10054.52008,0.0510368371,0.4432920367,0.222221092,0.4984925298
10064.556079999998,-0.06167935431,0.3953127086,0.1054545343,0.4137597602
10074.59208,-0.1722618967,-0.4730830157,-0.481486634,0.6966427201
10084.62808,-0.3513298063,-0.4918514085,-1.082738132,1.240029154
10094.664079999999,0.4832174098,-0.3856063306,-0.5609958299,0.8348099356
10104.70008,0.6326057298,-0.160818311,0.1133751726,0.6625001648
10114.73608,0.1855211891,-0.008957349658,0.5864278559,0.6151389891
10124.772079999999,-0.04121263772,0.01846843064,0.2228375347,0.2273678326
10134.80808,0.116947529,0.04601232469,-0.1231388533,0.1759461161
10144.84408,0.2614002143,0.01563019216,-0.1251947343,0.2902552264
10154.880079999999,0.2060222581,-0.02282811463,0.07604654789,0.2207925975
10164.916079999999,0.1051637815,0.01306267977,0.07664654531,0.1307851194
10174.952080000001,0.0102057302,0.04200288892,0.006592297107,0.04372479831
10184.988080000001,-0.07199048057,0.02224280834,-0.06765009239,0.1012615762
10195.02408,-0.1389674123,0.02823854327,-0.06912826851,0.1577595465
10205.060080000001,-0.1164867684,0.05251267433,-0.08090675354,0.1512370687
10215.096080000001,-0.07052385271,0.03865594268,-0.09059208155,0.1211396753
10225.13208,-0.01813689351,0.01683413386,-0.07575652599,0.07969558457
10235.16808,0.01128556475,0.002481558323,-0.02206022903,0.02490332926
10245.204080000001,0.03032848433,-0.01784043968,0.01853823178,0.03977140036
10255.24008,0.04336865231,-0.01907595634,-0.02110238202,0.05186562099
10265.27608,0.08037714198,-0.01995011508,-0.05793889046,0.101071297
10275.312080000002,0.1346027581,-0.04743261337,-0.09484300733,0.1713562119
10285.34808,0.2166748618,-0.004263204932,-0.1416719688,0.2589152706
10295.38408,0.3218237329,0.0488920784,-0.1158931299,0.3455317177
10305.42008,0.3755561364,0.04197716117,-0.0716481261,0.384627024
10315.45608,0.3761638083,0.05181802511,-0.06932809711,0.3859931391
10325.49208,0.3872070059,0.03119606495,-0.04888155341,0.3915250518
10335.52808,0.4113538139,-0.01557990611,-0.03928393364,0.4135189489
10345.56408,0.4373356242,-0.008333451748,-0.08527096912,0.4456490018
10355.60008,0.4483998719,0.03613286912,-0.08387458093,0.4576056978
10365.63608,0.4294168863,0.07421636939,-0.08644984089,0.44427526
10375.672079999998,0.380395292,0.06131741166,-0.1122512647,0.4013237466
10385.70808,0.3071542382,0.05891712964,-0.1470620783,0.345604122
10395.74408,0.2229297745,0.03026343405,-0.1592874368,0.2756556681
10405.78008,0.1662259622,0.0178492105,-0.2030702913,0.2630346137
10415.81608,0.1698652692,0.04056447387,-0.2303148079,0.2890408223
10425.85208,0.256916277,0.02667675197,-0.1721010252,0.3103810325
10435.88808,0.3250338542,0.03158315063,-0.1399368806,0.3552841572
10445.924079999999,0.3774491724,0.05062226951,-0.1248895097,0.4007840835
10455.96108,0.4075396751,0.03071542382,-0.1245702517,0.4272584366
10465.99708,0.4076129115,-0.01223705292,-0.1525304675,0.4353889923
10476.033080000001,0.3833072054,-0.005465977192,-0.1865682793,0.4263355644
10486.06908,0.3443637259,0.01966009319,-0.1853475268,0.3915694073
10496.10508,0.3171290034,0.03914886296,-0.173488204,0.3635953729
10506.141080000001,0.2980948547,0.09322274387,-0.2001653945,0.3709679333
10516.17708,0.3227331211,0.1489870548,-0.2007255578,0.4082212139
10526.21308,0.3364983438,0.1819022012,-0.1427784082,0.4082955057
10536.24908,0.3277260585,0.1371370876,-0.08808464929,0.366018928
10546.28508,0.2306093614,0.05036499202,-0.04641161643,0.2405646444
10556.32071,0.07531535357,-0.01863039851,-0.06522686005,0.1013609269
10566.35671,-0.02467364207,-0.04428856552,-0.09961777054,0.1117764101
10576.39271,-0.06980800733,-0.06081513584,-0.1027975595,0.1383436911
10586.42871,-0.006650184542,-0.05698754847,-0.1011042058,0.1162491552
10596.46471,0.1124801101,-0.01842866957,-0.06233599663,0.129912153
10606.50071,0.2109445904,0.008267378211,-0.04360385656,0.2155626732
10616.53671,0.2797253881,0.04498029113,-0.04917639926,0.2875549297
10626.57271,0.3100589888,0.00416906476,-0.008866863996,0.3102137632
10636.60871,0.3380539955,0.04176315308,-0.04053538397,0.3430273782
10646.64471,0.3933265556,0.05604556203,-0.01301356316,0.3975125623
10656.68071,0.396465341,0.05293308914,0.06765009239,0.405663917
10666.716709999999,0.4089345284,0.09418168724,-0.0124392204,0.4198242167
10676.75271,0.3685622817,0.01039108694,0.01355033755,0.3689576423
10686.78871,0.3235229337,0.02870456636,-0.0982881137,0.3393399388
10696.824709999999,0.2825528093,-0.00260376513,-0.1426545203,0.3165330658
10706.86071,0.2619356731,0.1211279958,-0.1964557748,0.3491090942
10716.89671,0.3177371138,0.04119538844,-0.1074249729,0.3379261137
10726.93271,0.2967611048,-0.01748551369,-0.1067445762,0.3158596224
10736.96871,0.20435931,-0.0163037914,-0.1773624229,0.2710829583
10747.004710000001,0.1875139202,-0.1013071042,-0.2230595827,0.3085128475
10757.04071,0.2117731409,-0.1355893296,-0.2924543381,0.3856966027
10767.07671,0.2411863898,-0.0155933547,-0.3432011533,0.4197630986
10777.112710000001,0.4478587121,0.0174749887,-0.2596022686,0.5179538001
10787.14871,0.5787639834,0.1160742474,0.02330122747,0.5907486154
10797.18471,0.7952603589,0.1261601096,0.04300159335,0.8063526206
10807.22071,0.7060474893,-0.1210525668,0.1859788799,0.7400979158
10817.25671,0.64103186,0.07263469756,0.1401588555,0.6601834212
10827.29271,0.5792121725,-0.224503845,-0.1306069902,0.6347809883
10837.32871,0.3492021507,-0.2314626163,-0.8318634903,0.93140429
10847.364710000002,0.3049274723,-0.02548801303,-1.061593796,1.104813011
10857.40071,0.4092450155,-0.09781573176,-0.7841548153,0.8899147007
10867.43671,0.3074840212,0.05009368122,-0.4154364129,0.5192718107
10877.47271,0.2335877869,0.2520734668,-0.1339820031,0.3688569695
10887.50871,0.2055538961,0.3010497451,0.03483537197,0.3661923762
10897.54471,0.0007960984111,0.2472430819,0.07001799546,0.256967498
10907.58071,-0.01555315509,0.3242807329,-0.1557417583,0.3600769218
10917.61671,0.04264462084,0.2130748773,-0.4366641446,0.4877448536
10927.65271,-0.1232939507,0.05623501182,-0.4742091163,0.493191708
10937.68871,-0.2746561445,-0.04431195438,-0.4655587089,0.5423508629
10947.724709999999,-0.4631648223,-0.1580800599,-0.3946472955,0.628695034
10957.76071,-0.5760409351,-0.2797038996,-0.2791846303,0.698571033
10967.79671,-0.5940595686,-0.07116646171,-0.4317315066,0.7378099553
10977.832709999999,-0.4046802405,-0.07342699528,-0.4223549116,0.5895263285
10987.86871,-0.4072237793,-0.01786324382,-0.2299546194,0.4680058
10997.90471,-0.4774707663,0.07826147318,-0.126650691,0.5001435678
11007.940709999999,-0.4747206746,0.09467636168,-0.07433093827,0.4897432192
11017.976709999999,-0.4997152557,0.04787056983,0.04024993021,0.5036139247
11028.01271,-0.5367624832,0.001974020004,0.1088670059,0.5476950658
11038.04871,-0.5709525418,-0.03030670345,0.1497811067,0.5910496436
11048.08471,-0.6736914099,-0.04043466568,0.2235987325,0.710979234
11058.120710000001,-0.7511404125,0.09641123056,0.01677335937,0.7574882113
11068.156710000001,-0.8380162961,0.149847765,-0.2477581485,0.886628313
11078.19271,-0.9803130399,0.1048955405,-0.1382328558,0.995552637
11088.22871,-1.066297296,0.09521722913,-0.05365174849,1.071883741
11098.264710000001,-1.135226613,0.06439304709,0.07930812478,1.139813891
11108.30071,-1.165095653,-0.004398860335,0.3561831415,1.218332327
11118.33671,-1.099597043,-0.08256268501,0.5843637522,1.24796284
11128.372710000001,-0.9336793754,-0.1514680284,0.6315250182,1.137331785
11138.40871,-0.7761580901,-0.004437451959,0.2190250039,0.8064818808
11148.44471,-0.5124807508,0.0575658381,0.2972373605,0.5952313786
11158.48071,-0.5140525554,0.1931645232,0.2609296962,0.6079859119
11168.51671,-0.582423171,0.2686409676,0.1226266372,0.6530099629
11178.55271,-0.5823733234,0.2806072944,0.04003588557,0.6476897511
11188.58871,-0.400944966,0.2361930138,-0.135504545,0.4846704935
11198.62471,-0.1636017318,0.1261355513,-0.2749676184,0.343922804
11208.66071,-0.05767510794,0.1753872335,-0.4154867355,0.4546606725
11218.69671,0.001960279047,0.2390768605,-0.3704211847,0.4408780353
11228.73371,-0.1515846804,0.1826769572,-0.2097220838,0.3167524877
11238.76871,-0.3495428972,0.1082535964,-0.2099829427,0.4218908797
11248.805709999999,-0.4172618406,0.01699610174,-0.2119651488,0.4683220424
11258.84171,-0.2636565086,-0.08092254102,-0.1556213057,0.3166720748
11268.87771,0.04912845209,-0.2632480806,-0.1090341997,0.289139436
11278.913709999999,0.2000089815,-0.4913427007,-0.04377799395,0.5322948008
11288.94971,0.1957159558,-0.4274735641,0.02393258058,0.4707559366
11298.98571,0.1419068807,-0.4455040383,0.1759497722,0.499569548
11309.021709999999,-0.003673878685,0.05306114316,-0.03935994744,0.06616787559
11319.05771,0.5152571549,0.1622555566,-0.3275703399,0.6317587585
11329.093710000001,0.5218319835,0.08695862174,-0.2054722909,0.5675291034
11339.12971,0.8213995325,0.04851142466,-0.2073258948,0.8485485118
11349.16571,0.7351444039,0.00926082015,-0.1462575746,0.7496094553
11359.201710000001,0.4640943834,0.3688359314,-0.3868108571,0.7078461557
11369.23771,1.055376305,0.1753316849,-0.4379295552,1.156002872
11379.27371,0.8516113649,-0.2375150692,-0.05097843803,0.8855812363
11389.30971,0.8668552022,-0.3394612741,0.1832599247,0.9488182641
11399.34571,0.8041034686,-0.4262082267,0.3935959661,0.9915410356
11409.38171,0.5549373105,-0.6574597585,0.6681589937,1.089332453
11419.41771,-0.06165369965,-0.3709485304,0.3124203137,0.4888869433
11429.45371,0.06770257115,-0.1087126029,-0.03408451639,0.1325285721
11439.48971,-0.2197991022,-0.2632311237,0.1873962815,0.3907935979
11449.52571,-0.1538251141,-0.3961927146,0.3637763723,0.5594319278
11459.56171,-0.01791016772,-0.3767296726,0.2467151149,0.4506821144
11469.59771,0.1229434832,-0.0126352483,0.01432805378,0.1244188197
11479.63371,0.1772923294,0.2156523299,0.1718029268,0.3278029029
11489.66971,-0.003140320256,0.1085453725,0.3127652264,0.3310801207
11499.70571,-0.2545811183,0.03359400809,-0.05632509548,0.262892791
11509.74171,-0.565058183,0.02526055634,-0.4323021948,0.7119087256
11519.77771,-0.7752965759,-0.005917966962,-0.6029181004,0.9821558118
11529.81371,-0.92270364,-0.05844584405,-0.6711574459,1.142475488
11539.84971,-1.143104128,-0.147501862,-0.6761100376,1.336251709
11549.88687,-1.274491576,-0.182372902,-0.5425087613,1.397105725
11559.922869999999,-1.250629235,-0.2442118853,-0.5666916758,1.394579644
11569.95887,-1.053380578,-0.2906574887,-0.5259383368,1.21272567
11579.994879999998,-0.6832442254,-0.2339587927,-0.4568242478,0.8545453654
11590.03088,-0.2476295098,-0.08374966979,-0.5001374978,0.5643331445
11600.066869999999,0.1330788276,0.1659474885,-0.4289704879,0.4788154371
11610.10287,0.2984981664,0.4391896302,-0.3053357907,0.6125509217
11620.13887,0.1977697172,0.6231167221,-0.2010991949,0.6839796756
11630.17488,0.0545920904,0.7363077074,-0.3182867156,0.8040122945
11640.21087,-0.3822153841,0.6370903981,-0.5132779455,0.9030099803
11650.24687,-0.7255198869,0.4973542231,-0.567661071,1.046890358
11660.28287,-0.9981507021,0.3571789223,-0.5755162936,1.206275512
11670.31887,-1.262194296,0.07414795697,-0.9201845133,1.563768493
11680.354879999999,-1.349047814,-0.09759646118,-1.502154964,2.021367015
11690.39087,-1.273503689,-0.2375758803,-1.752415209,2.179268916
11700.42687,-1.160633642,-0.3283433783,-1.654444526,2.047453666
11710.462870000001,-0.9451723702,-0.2860867202,-1.557600601,1.844265722
11720.49888,-0.7221466282,-0.03114285529,-1.475281745,1.642839572
11730.534880000001,-0.5970688382,0.1539033937,-1.184241849,1.335142767
11740.570870000001,-0.4617935041,0.4220567036,-0.9755700709,1.158931432
11750.60687,-0.20212275,0.6088875228,-0.7440758065,0.9824695554
11760.64287,-0.07224527299,0.759053961,-0.743740688,1.065144359
11770.67888,0.09759880006,1.016526162,-0.5546202452,1.162090608
11780.71487,0.1346490973,1.074700695,-0.6795822604,1.278649292
11790.75087,0.0004011189938,1.055263381,-0.5994631268,1.213646161
11800.78687,0.05862623066,1.15098581,-0.5324193907,1.269517931
11810.82288,-0.1405243796,1.121560282,-0.4293543211,1.20912766
11820.85888,-0.342815237,0.964783566,-0.09653811514,1.028420743
11830.89587,-0.621102941,0.5158711857,-0.002631247044,0.8074025434
11840.93187,-0.9242753716,-0.04092641652,-0.01580443919,0.9253160078
11850.96787,-1.102275433,-0.6566750622,-0.3286181974,1.324470909
11861.00388,-1.200212203,-1.123903261,-0.9286404642,1.888396405
11871.03987,-1.179185469,-1.344188924,-1.039039404,2.068072803
11881.07587,-1.255125305,-1.452430242,-1.493706322,2.432293509
11891.111869999999,-1.32774363,-1.412442888,-1.991835301,2.779443456
11901.14788,-1.401170626,-1.411888572,-2.145077667,2.925417348
11911.183879999999,-1.551257249,-1.515520529,-1.962412112,2.92476714
11921.219869999999,-1.800767882,-1.366855656,-1.662687638,2.806348077
11931.255869999999,-1.775575299,-1.100061824,-1.153810599,2.386227684
11941.291870000001,-1.23089532,-0.3704649657,-0.2188080722,1.30392659
11951.327879999999,-0.4465841652,0.6094623041,0.3905729556,0.8505462659
11961.36388,0.3964732347,1.876394307,0.2314658323,1.931740938
11971.399870000001,1.259058727,2.788787405,0.2769144854,3.072335545
11981.435870000001,1.894274508,2.549505308,0.7219180021,3.257210283
11991.47187,1.788356289,1.518561666,1.260764652,2.663414211
12001.507880000001,0.8681823009,0.01831757247,0.4412279695,0.9740421768
12011.543870000001,-0.1488832667,-1.345199908,-0.8830549863,1.616018295
12021.57987,-0.72094064,-1.812988855,-1.335720987,2.364494565
12031.61587,-0.4983482498,-1.584015398,-0.6655096203,1.788954671
12041.65188,-0.49219464,-0.8891229343,-0.7843577868,1.283749311
12051.68788,-0.1305157006,0.1459307152,-0.5408423048,0.5751873785
12061.72387,0.3595879751,1.369651794,-0.9017529202,1.678811448
12071.75987,0.7736886647,2.456014761,-0.2125261161,2.583751151
12081.79587,1.869705385,3.329739053,1.412096148,4.071483258
12091.831880000002,1.775569598,3.222782954,1.742346888,4.071209899
12101.86787,0.7928570071,2.256666808,0.4528691912,2.434390646
12111.90387,-0.2361865819,1.433491695,-0.3929977959,1.50503482
12121.93987,-0.9691490972,0.8332872874,-0.4193231302,1.345157821
12131.97588,-1.608160013,0.686527437,-0.1637413341,1.756220309
12142.01188,-1.795842187,0.1896912771,0.6106586444,1.90628852
12152.04787,-1.81893021,-0.1108778268,1.273683783,2.22330191
12162.08387,-1.564647958,-0.3884790677,1.8046823,2.419900292
12172.119869999999,-0.9926841402,-0.123977344,1.482104276,1.788134578
12182.15588,-0.2836408299,0.2883759052,1.688465965,1.736240219
12192.191879999998,0.2949484679,0.3572297931,2.148691539,2.198063478
12202.22787,0.4394702965,0.03590424299,1.935345351,1.984939516
12212.263869999999,0.1534633908,-0.6305830318,1.134606589,1.307102936
12222.29987,-0.5008529046,-1.240834125,0.4915496922,1.425532903
12232.33588,-0.7636144969,-1.034039742,0.4641777062,1.366677077
12242.371869999999,-0.8702133313,-0.255328027,0.3660052943,0.9779690786
12252.407870000001,-0.7557105231,0.7339723295,0.3726582563,1.117447069
12262.443870000001,-0.5509442469,1.368814473,0.7268018889,1.644820237
12272.47988,-0.443732332,1.531858234,0.7044971001,1.743503426
12282.51588,-0.651982964,1.202251858,0.5039896435,1.457565393
12292.551870000001,-0.9081600067,0.5343489718,0.03233042479,1.054195749
12302.58787,-1.136132712,-0.2711903536,-0.1057235062,1.17282531
12312.62487,-1.057382997,-0.8077489883,0.1381509948,1.337760415
12322.660880000001,-0.9432207888,-1.101934687,-0.08562311769,1.453016459
12332.69687,-0.809705759,-0.9712728059,-0.8546360564,1.526236243
12342.732870000002,-0.6253158599,-0.6942305589,-1.294971156,1.596848862
12352.76887,0.2577631,-0.2834923106,-0.8535397035,0.9355959231
12362.80488,1.678694976,0.2465308911,0.06537947237,1.697960181
12372.84088,2.025723716,0.5363627529,0.6719520825,2.200627451
12382.87687,2.138181168,0.5414837444,0.9874818724,2.416638948
12392.91287,1.900143943,0.3796649748,1.217528293,2.288464035
12402.94887,1.269253932,0.1744323832,0.9099436998,1.571441929
12412.98488,0.5714749905,-0.2516197228,-0.08708024383,0.6304594504
12423.02087,0.0474644807,-0.7354756486,-0.8388579297,1.116628825
12433.05687,0.1211165938,-0.6029005587,-1.01802071,1.189337832
12443.092869999999,0.3647814721,-0.1987339962,-0.8676671612,0.9619807827
12453.12888,0.7192341301,0.03521251738,-0.2301879233,0.7559921529
12463.16488,0.6524367079,0.1327931911,0.0527477324,0.6678997026
12473.200869999999,0.2563711703,0.1183271796,-0.1889100891,0.339727126
12483.23687,0.2378860751,0.1003288651,-0.1453366381,0.2962742045
12493.27287,0.2844076923,0.5426923639,0.1949613726,0.6429717521
12503.30888,0.01798954368,0.7790707344,0.467576108,0.9087916426
12513.34488,0.378971495,0.5540008789,0.7169680417,0.9821301037
12523.38087,-0.3725427738,0.2385780931,0.5364761889,0.695351944
12533.41687,-0.2412108019,0.1252543759,0.4622048557,0.5361945899
12543.45287,-0.1070566714,0.1208748114,0.4020586413,0.4332701259
12553.48788,-0.05354909331,0.08834908962,0.3291081941,0.3449424162
12563.523869999999,-0.05536231488,0.001527000368,0.4542070341,0.4575711393
12573.559870000001,-0.1971178257,-0.04514576733,0.5855097699,0.6194475508
12583.59587,-0.5651845559,-0.009559320509,0.3264167207,0.6527425515
12593.63188,-0.8762067273,0.182170296,0.1080056745,0.9014374473
12603.667879999999,-0.7953660473,0.4580103555,-0.06774876416,0.9203100184
12613.70387,-0.7104513198,0.7356747463,-0.1755591416,1.037679827
12623.73987,-0.799516401,0.9191431242,-0.1682255638,1.229776564
12633.77587,-0.780163579,0.9708500522,0.2338085192,1.267229836
12643.81188,-0.5421813172,0.919553014,0.7605888551,1.310737858
12653.847880000001,-0.5163132352,1.097275041,1.056613503,1.60842282
12663.88387,-0.5147529057,0.9222058958,1.018177416,1.467010401
12673.919870000002,0.1517676982,0.5501206666,0.6625877666,0.8744648252
12683.95587,0.008950332999,0.5413635841,0.1314904314,0.5571753514
12693.99188,0.2942125958,0.6071473914,0.05207647204,0.6766838002
12704.02787,0.468832967,0.608087039,0.4397878003,0.8848658131
12714.06387,0.5892195359,0.6624804702,0.7839110595,1.183459583
12724.100869999998,0.4049652922,0.6513842091,1.212884434,1.435056419
12734.13688,0.03771190971,0.4489766997,0.8923856807,0.9996771819
12744.17288,-0.1527377513,0.09912199974,0.2066897178,0.2754535005
12754.208869999999,-0.1769922942,-0.2060050088,-0.006402116418,0.271671351
12764.24487,-0.04148365617,-0.7177799276,0.009069031477,0.7190348847
12774.28087,0.1775679526,-0.8975236291,-0.1784733939,0.9321651114
12784.31688,0.603080653,-0.7469069552,-0.01605528474,0.9601218912
12794.35287,0.7972564521,-0.4952550727,0.02749945521,0.9389630757
12804.38887,0.7928646085,-0.1738304123,-0.1410798651,0.8238657827
12814.42487,0.722119731,-0.0183494398,0.2871912593,0.7773496171
12824.46088,0.4308985707,-0.06688863873,0.2947616494,0.5263383875
12834.496879999999,0.03573262721,-0.1348008326,-0.3527075565,0.3792765554
12844.532870000001,0.02094735771,-0.1738508776,-0.5785585999,0.604477438
12854.56887,0.1303665966,-0.3142957351,-0.5302255154,0.6300129806
12864.604870000001,0.385994001,-0.4900700542,-0.5052251601,0.8027530687
12874.640879999999,0.5999725655,-0.5806866941,-0.6434591854,1.054136537
12884.67687,0.7542475498,-0.6239356247,-0.5143550026,1.105778503
12894.71287,0.8621602535,-0.546673733,-0.3987040937,1.095964154
12904.748870000001,0.9193410525,-0.3691127971,-0.08236797273,0.9940908966
12914.78487,0.4815009597,-0.3024478143,-0.03056047261,0.5694311171
12924.820880000001,-0.04098401159,-0.2661544392,-0.4295674521,0.506997111
12934.856870000001,-0.1782079303,-0.2372177383,-0.6622895586,0.7257119134
12944.89287,-0.1227570301,-0.246111061,-0.6256035429,0.6833884223
12954.92887,-0.07581529051,-0.2864200115,-0.4576416886,0.5451791416
12964.96488,-0.2262673652,-0.3612208101,-0.4790945381,0.6412557763
12975.00088,-0.4093577206,-0.3454184175,-0.6162439048,0.8164828086
12985.03687,-0.1385386652,-0.1664819241,-0.4882156098,0.5341008092
12995.07287,0.06311016798,-0.07398657382,-0.3598703957,0.3727782291
13005.10887,-0.1747171426,-0.1275660726,-0.1074589598,0.2415504313
13015.14488,-0.3515790439,-0.3084371173,-0.2295447296,0.5209914225
13025.18087,-0.5270747432,-0.3097509867,-0.3760180664,0.7177346619
13035.21687,-0.4901890451,-0.1981033739,-0.3617034978,0.6405932149
13045.25287,-0.402044608,0.009452316463,-0.3665490854,0.5441391781
13055.28888,-0.5347278714,0.2701954499,-0.32386675,0.6810500344
13065.32488,-0.6166611037,0.4174841809,-0.482654323,0.8874227592
13075.36087,-0.7726101458,0.7902199128,-0.6626532555,1.28859741
13085.39687,-0.5673342848,1.038956958,-0.3052398598,1.222485633
13095.43287,-0.3717083761,0.9776570883,0.06259795189,1.047806758
13105.469879999999,-0.5658163476,0.7239645275,0.2149886709,0.9436593162
13115.505869999999,-0.8936846396,0.3618812531,-0.07583370924,0.9671509851
13125.54187,-1.291422481,0.5592768216,-0.7467069805,1.593152191
13135.577870000001,-1.112934761,0.5699225548,-0.9162668788,1.550154991
13145.61388,-0.8740985137,0.4653743389,-0.6995708209,1.212444152
13155.64988,-0.7945769656,0.3670361584,-0.3360400683,0.9375452113
13165.685870000001,-0.7622503415,0.32327355,-0.2662120342,0.8697127217
13175.72187,-0.3219140723,-0.04853101283,-0.4294487536,0.5388971712
13185.75787,-0.203756462,-0.239535867,-0.1545851791,0.3504150467
13195.79388,-0.2355322784,-0.591577718,-0.03878107309,0.6379213292
13205.829870000001,-0.6897436979,-0.6215458676,0.0157886517,0.9286091298
13215.86587,-0.8904318336,-0.719471527,-0.2002823389,1.162162271
13225.90187,-1.205446484,-0.7026172203,-0.5805601019,1.511232019
13235.937870000002,-0.9827038202,-0.2717473009,-0.5973047733,1.181662552
13245.97388,-0.1692681223,-0.01857572705,0.1874827838,0.2532716903
13256.00987,0.51475963,0.170741913,1.116157454,1.240942279
13266.04587,0.4385464364,0.1787411964,0.4650021636,0.6637005382
13276.08187,-0.2143083474,-0.2237644646,-1.159433282,1.200118385
13286.117880000002,-0.1912407893,-0.6819350338,-1.476886806,1.637926454
13296.15388,0.3048896116,-0.9049560249,-0.8258905596,1.262536454
13306.18987,0.6505837253,-1.096754931,-0.7489575738,1.478873899
13316.22587,1.052132489,-0.9930481294,-0.5144222456,1.53549914
13326.26187,1.284843194,-1.02906844,-0.08658556938,1.648423777
13336.29788,1.479178622,-1.405900731,-0.2172404337,2.052247467
13346.33387,1.640009797,-1.790058706,0.0303271687,2.427933698
13356.36987,2.055420848,-1.705947678,0.4348667836,2.706311412
13366.405869999999,2.15905836,-1.548739585,0.3890678823,2.685423825
13376.44188,2.3239782,-1.332319515,0.6289884961,2.751649777
13386.477879999999,2.286288217,-0.8713511994,0.3286392474,2.468677881
13396.513869999999,1.722546169,-0.443061364,-0.0286677289,1.778845276
13406.549869999999,1.28248852,-0.5031188469,0.3115525138,1.412434192
13416.58587,1.138148832,-0.5410612831,0.5666998619,1.381766554
13426.62188,1.137431379,-0.02484350368,0.4673147374,1.229939188
13436.65787,0.8665944895,0.4098404083,0.8089295411,1.254321399
13446.69487,0.7547118187,0.1773690011,1.146154255,1.383733814
13456.73087,0.7200156105,0.4718526153,1.421101445,1.661504344
13466.76688,0.8387889326,0.6580786863,1.825818231,2.114295779
13476.80288,1.483138357,0.07387167603,2.057422934,2.537350102
13486.83887,1.982683239,-0.8027785626,2.151306413,3.033744474
13496.87487,1.488703736,-0.8520391618,2.138500426,2.741421825
13506.91087,1.524211538,-0.5872693433,1.676687334,2.340808944
13516.946880000001,1.37706621,-0.4187128271,0.828138814,1.660555833
13526.98287,0.9356069832,-0.5114414813,-0.4653243452,1.16338281
13537.01887,0.4491182023,-0.2088012935,-1.19619882,1.294680175
13547.05487,0.3417472431,-0.2147597525,-0.6613388014,0.7747786391
13557.09113,0.4030443357,-0.2659923251,0.1137306833,0.4961162383
13567.127120000001,0.1732253717,-0.03499880165,-0.1120045853,0.2092294736
13577.16312,-0.3960813251,-0.1076253131,-0.5428549165,0.6805549827
13587.19912,-1.139256587,0.05543642834,-0.407298916,1.211144573
13597.23513,-1.828828377,-0.02744873062,0.2510478652,1.846183007
13607.271130000001,-1.931187834,-0.5212757671,0.7989553607,2.1539602
13617.30712,-1.515120141,-0.8704460505,0.9367169309,1.982600307
13627.343120000001,-1.023750251,-1.143017078,0.9099980789,1.783998072
13637.37912,-0.7285455287,-1.276396014,0.6115012282,1.591822579
13647.415130000001,-0.2894427297,-1.062219083,0.1002370638,1.10550167
13657.45112,0.1081667653,-0.6641239764,-0.3358313227,0.7520261846
13667.48712,0.1291158772,-0.475502155,-0.4363145542,0.6581364595
13677.52312,0.2145442826,-0.3716238838,-0.3022636271,0.5248779482
13687.55913,0.1696047758,-0.3298248435,0.02542954087,0.3717483946
13697.59513,0.1107528426,-0.3737532205,0.5284280813,0.6566535609
13707.63112,-0.031265793,-0.2308403264,0.782318278,0.8162638631
13717.66712,0.02194226146,-0.3303651993,0.9555291778,1.011265859
13727.70312,-0.1278802143,-0.36672304,1.328456991,1.38406543
13737.73913,-0.3073853494,-0.183983883,0.942558884,1.008341744
13747.77512,-0.3550050737,0.02005573042,0.3322732919,0.4866583763
13757.81112,-0.2750514163,0.1645943698,-0.1739552504,0.3646985293
13767.84712,-0.07068582058,0.3361230987,-0.5405031663,0.6404052588
13777.88413,0.1860831065,0.3753609125,-0.7052443743,0.8203001674
13787.92013,0.4417938338,0.2042871699,-0.6536005962,0.8149286955
13797.95612,0.4730721983,0.2447370018,-0.4200429225,0.6783285057
13807.992119999999,0.6233970961,0.09107096851,0.1515282547,0.647980457
13818.028119999999,0.6307495312,0.07178210042,0.7247881079,0.9634912778
13828.064129999999,0.395348669,0.1386748322,0.9579949486,1.045602984
13838.10012,0.06974588066,0.2751469817,0.6770795059,0.7341709656
13848.13612,-0.05394407272,0.455373042,0.05305120289,0.4616156415
13858.172120000001,-0.08804152608,0.5845008694,-0.4537375027,0.7451646113
13868.208129999999,-0.1396914437,0.5252768706,-0.7883906114,0.9575955547
13878.244130000001,-0.1395258214,0.4984545595,-0.9615401155,1.092009064
13888.28012,-0.1734089743,0.4005609136,-0.9868655759,1.079084511
13898.316120000001,-0.1145856924,0.2689201173,-0.9142262006,0.9598215752
13908.35212,-0.2176253267,0.1761955928,-0.84823394,0.8932561148
13918.388130000001,-0.2574439882,0.1859285756,-0.7973865527,0.8582960775
13928.42413,-0.3253993052,0.2168408496,-0.7009916943,0.8026792743
13938.46012,0.08300868139,0.2187217892,-0.6157024527,0.6586495066
13948.49612,0.5118830922,0.2727041429,-0.4259725839,0.7196141271
13958.53212,0.6064638519,0.4749878558,-0.2597619706,0.8129502742
13968.56813,0.6256402342,0.5787586478,-0.2843512666,0.8984669821
13978.60412,0.668062807,0.6531253637,-0.3563743454,0.9999416628
13988.64012,0.614571455,0.7513101279,-0.3378819412,1.027778764
13998.67612,0.5261209162,0.6409916604,-0.3029518443,0.8828665511
14008.71213,0.3362969072,0.4139050637,-0.2787203979,0.6017458531
14018.74813,-0.2367756888,0.2092789745,-0.4458010769,0.5464421435
14028.784119999998,-0.7644554727,0.06707964169,-0.6069830847,0.9784274695
14038.82012,-1.254835576,-0.2248200697,-0.6324412769,1.423073559
14048.85612,-1.385839519,-0.1699897966,-0.6141704822,1.525337039
14058.89213,-1.109338139,-0.0442865464,-0.5714893162,1.248676276
14068.92812,-0.7445373711,0.04127005921,-0.5447242713,0.9234520272
14078.96412,-0.4084895553,0.1745805918,-0.557612704,0.7129333963
14089.00112,-0.4023824309,0.1538081389,-0.7389067948,0.8553080239
14099.037129999999,-0.5204907784,0.06401418407,-0.9688163906,1.10164135
14109.07313,-0.662817416,0.104489159,-0.9587357908,1.170221871
14119.10912,-0.7375502408,-0.0737213295,-0.7433179343,1.049731748
14129.145120000001,-0.8158076209,-0.2895994716,-0.4334459102,0.968134952
14139.18112,-0.628366937,-0.3565079908,-0.1830500096,0.7452853555
14149.21713,-0.364382692,-0.2995753514,0.0490359199,0.4742622258
14159.253120000001,-0.1520039257,-0.2335825609,0.1948432589,0.3400439703
14169.28912,0.01620731235,-0.248521064,0.2647321039,0.3634673068
14179.32512,0.1069080059,-0.2028857385,0.4071463037,0.467290121
14189.36112,0.1943653952,-0.1807891106,0.6753534079,0.7256478725
14199.39713,0.174869024,-0.2775590678,0.9721960813,1.026052354
14209.43312,0.1722876976,-0.4380090042,1.197365339,1.286553028
14219.46912,0.07491467312,-0.5782444948,1.540504512,1.647159086
14229.50512,0.5505917329,-0.3867986875,1.534777749,1.675800472
14239.54113,0.5512918639,-0.3504407737,1.344370188,1.494678112
14249.57713,0.7751164086,-0.2888278584,0.9850973779,1.286329593
14259.61312,1.070751632,-0.1192844784,0.5974696648,1.231952858
14269.64912,1.033172454,-0.1337307921,0.2585896039,1.073404783
14279.68512,0.9840510917,-0.1333106697,-0.1018719453,0.998251561
14289.72113,0.8310719966,-0.05281647373,-0.4823625469,0.9623636891
14299.75712,0.7455714512,0.188685483,-0.7372637272,1.06538106
14309.79312,0.4875768015,0.2751946,-0.8165981644,0.9900988675
14319.82912,0.2424306773,0.2827974787,-0.773191359,0.8582376856
14329.86513,-0.1573869456,0.238100339,-0.6751130873,0.732966645
14339.90113,-0.4419501738,0.1056755956,-0.5860272485,0.7415626902
14349.93712,-0.3372149932,0.1469693634,-0.5167991388,0.6343463528
14359.973119999999,-0.2806464708,-0.01604022816,-0.4142869234,0.500652959
14370.00912,-0.1941300447,-0.1958501859,-0.3060929686,0.4119911104
14380.045129999999,-0.04867383108,-0.2770346457,-0.1245310754,0.3076122973
14390.082120000001,0.09882963896,-0.2919088294,0.1271512127,0.3333849023
14400.118120000001,0.1581883065,-0.264994717,0.355961532,0.4711203165
14410.15412,0.1431450286,-0.2315397265,0.4665540147,0.5401608953
14420.190129999999,0.06096241258,-0.1958716014,0.5221762383,0.5610259565
14430.22613,-0.06651529402,-0.2232287865,0.5223124784,0.5718965821
14440.26212,-0.1139663261,-0.2314382042,0.4111855602,0.4854127427
14450.29812,-0.06445729338,-0.1300884884,0.2721516359,0.3084546488
14460.334120000001,0.008202327937,-0.004111323506,0.169474529,0.1697227067
14470.37013,0.07413984396,-0.07189082209,0.1273494333,0.1639600101
14480.40612,0.117587653,-0.210013933,0.05848735929,0.2476963451
14490.442120000002,0.1328200152,-0.2867095218,-0.0284724319,0.3172604383
14500.47812,0.1115453596,-0.3109592407,-0.05999886453,0.3357646205
14510.51412,-0.1523985397,-0.3468241977,0.1391654867,0.4035831658
14520.55013,-0.2453083114,-0.4075863797,0.2439475912,0.5346150501
14530.58612,-0.3955484976,-0.4137850496,0.2277139664,0.6160603312
14540.62212,-0.4348232219,-0.4252022498,0.08692178428,0.6143480968
14550.65812,-0.5028125259,-0.5186325698,-0.07922918737,0.7266893716
14560.69387,-0.461799936,-0.596512768,-0.1408968472,0.7674233413
14570.72988,-0.3348979609,-0.5497681161,0.1061170238,0.6524281174
14580.765879999999,-0.5987971289,-0.5897392803,0.576723159,1.019293884
14590.80187,-0.2747507232,-0.3249765515,0.6537491155,0.7800548859
14600.83787,-0.5022942433,-0.1058102643,0.5501487333,0.7524353444
14610.873870000001,-0.6872999272,0.07434577558,0.2867328376,0.7484144604
14620.90988,-0.389138926,0.3638065585,0.03946344316,0.5341738285
14630.94587,-0.4032236259,0.4463295555,0.07162429869,0.6057469809
14640.98187,-0.5309519588,0.4019897904,-0.03956401527,0.6671364819
14651.01787,-0.2929963019,0.4263135131,-0.5001871991,0.7195674246
14661.05488,-0.2799809846,0.41821194,-0.8376949185,0.9772529637
14671.09088,-0.04427175477,0.4681241017,-0.9205973268,1.033730913
14681.12687,0.4806976254,0.457861617,-0.7323333549,0.9884430232
14691.16287,0.6094438854,0.2523727711,-0.1477848673,0.6759838992
14701.19887,0.5428840794,0.03672172029,0.3441261828,0.6438124247
14711.23488,0.7008869561,0.03223197229,0.4357877201,0.8259493703
14721.27088,0.8034552316,0.07481209103,0.3528098828,0.880688351
14731.306869999999,0.740480646,0.19497219,0.274293471,0.8133650165
14741.34287,0.452300184,0.1084042353,0.1943877608,0.5040967528
14751.37887,-0.01471641853,-0.05844193373,-0.1068122578,0.1226413103
14761.41488,0.1283583704,0.04485695142,-0.5334783214,0.550533502
14771.45087,0.01177512288,0.1759551078,-0.8060363388,0.8251020743
14781.48687,0.04415707625,0.2663202808,-0.8983627045,0.9380468476
14791.522869999999,0.2948616368,0.4005178634,-0.8341263628,0.9711460925
14801.55888,0.6833523989,0.5179516981,-0.58002859,1.035218638
14811.594879999999,0.7595534594,0.3880226925,-0.323156898,0.9120928946
14821.630869999999,0.9032246643,0.3303886247,-0.1241697174,0.969736849
14831.66687,1.017468733,0.3699904276,-0.02046467006,1.082845484
14841.702870000001,0.9611043517,0.307641494,0.05049480021,1.010403181
14851.738879999999,0.821630059,0.2365888337,0.03636617303,0.8557877824
14861.77487,0.7627271819,0.1186539293,0.01783342302,0.7721072075
14871.81087,0.5859917267,-0.05296777043,0.134901697,0.6036475431
14881.846870000001,0.3473173007,-0.1563680317,0.2556250656,0.4587204409
14891.882880000001,0.1047011206,-0.181757373,0.1823360646,0.2779289616
14901.918880000001,-0.1177339795,-0.1642698127,0.08282931805,0.2184183079
14911.954870000001,-0.2530384035,-0.1016005979,0.08380287945,0.2852613499
14921.99087,-0.3101073745,0.01893737733,0.1231797838,0.3342132061
14932.02787,-0.3127845953,0.04567541543,0.1555634183,0.3523072859
14942.06388,-0.3351733647,0.06895478893,0.07677160263,0.3506990538
14952.09987,-0.3126281092,0.07371614009,-0.07343225777,0.3294885437
14962.135869999998,-0.2313093462,-0.008594054841,-0.134305281,0.2676112478
14972.17187,-0.1780286401,-0.2187551549,-0.1706024569,0.3296258679
14982.20788,-0.03375539124,-0.2800303935,-0.1932914078,0.3419327654
14992.24388,0.1095605953,-0.1676984007,-0.1451278925,0.2473628566
15002.27987,0.1954409905,-0.01941907827,-0.09715441167,0.219119285
15012.31587,0.2794942769,0.02993836541,-0.1369985086,0.312701052
15022.35187,0.2261632117,0.05529477954,-0.1216928369,0.2627098352
15032.38788,0.167699826,0.2230971145,-0.07258850455,0.2883828101
15042.42388,-0.09746636063,0.2507937305,-0.03542418659,0.2713891297
15052.45987,-0.4065892833,0.07059935488,-0.06115076602,0.4171792545
15062.495869999999,-0.5802424519,-0.01269547462,-0.08830172718,0.5870601954
15072.53187,-0.5488540135,0.04649884958,-0.09928513706,0.5596967122
15082.567879999999,-0.4783230711,0.03326382313,-0.04838687897,0.481913615
15092.603869999999,-0.4820087173,-0.05918763645,-0.001851813197,0.4856325865
15102.63987,-0.395796785,-0.1022186486,-0.04252387583,0.410989084
15112.675870000001,-0.369966052,-0.08421196528,0.06066837072,0.3842488594
15122.71188,-0.3626684345,0.123966344,0.178815456,0.4229314544
15132.74788,-0.3604767519,0.2058185557,0.2262626874,0.4727574117
15142.783870000001,-0.443496543,0.3162043028,0.2741829586,0.6097955719
15152.81987,-0.291797111,0.4175773709,0.1824448228,0.5411123063
15162.85587,-0.431176752,0.4445032508,0.08637390018,0.6252655293
15172.89288,-0.4418382727,0.4780910463,0.0170925808,0.6512175243
15182.92787,-0.6834008577,0.598636294,0.05983572721,0.9104847385
15192.964870000002,-0.7678777749,0.4654571501,0.06090752184,0.8999979789
15203.00087,-0.6831921852,0.2996383369,0.05677295566,0.7481696755
15213.036880000001,-0.5262932628,0.2673629855,0.08986001015,0.5971117031
15223.07288,-0.3769064046,0.2831376039,0.2152324998,0.5182184574
15233.10887,-0.5792820467,0.3562189922,0.3914430213,0.7846574405
15243.14487,-0.6140902291,0.2351064549,0.3801298285,0.7595265243
15253.18087,-0.7299924222,0.1011478041,0.3306951284,0.8077617735
15263.21688,-0.6275834101,0.0324190101,0.2294611144,0.6690024902
15273.25287,-0.5141335393,-0.09799268313,0.1897023869,0.5567071562
15283.28887,-0.4884103221,-0.09384678796,0.3005866456,0.5811232174
15293.324869999999,-0.3797208157,-0.1002871305,0.3372071725,0.5176428147
15303.36087,-0.213228659,-0.1450568488,0.3567058825,0.4401670559
15313.39688,-0.03193880752,-0.3726000765,0.4703161132,0.6008728241
15323.432869999999,-0.1317994568,-1.046840028,0.7245220596,1.279913027
15333.46887,0.07298582286,-1.596389276,0.7816908717,1.77899586
15343.50487,0.3014613891,-1.788972293,0.4625363928,1.872228819
15353.54088,0.8072651312,-1.868529217,-0.4710844374,2.089257996
15363.57688,1.167083633,-1.651713876,-1.344871879,2.428769916
15373.61287,1.626851077,-0.9716829881,-1.31759111,2.307998827
15383.64887,2.544728717,-0.3945176335,-1.140898778,2.816547253
15393.68487,2.001886811,-0.06215740073,-0.4903936976,2.062013658
15403.720879999999,1.977740588,-0.2341919504,0.01145761907,1.991591067
15413.756870000001,1.293171383,-0.5260525768,0.09785607755,1.399499679
15423.79287,0.7849976183,-0.5717293444,-0.1341082299,0.9803472453
15433.82987,0.3845871609,-0.6347711,-0.5357990813,0.9153809531
15443.865880000001,0.2234579243,-0.6232554473,-0.8173811066,1.051899553
15453.90188,0.2243471396,-0.5319801551,-0.9100542122,1.077744494
15463.93787,0.4776106609,-0.4072108423,-0.9625446671,1.149097407
15473.97387,0.8562753233,-0.08840248201,-1.001443269,1.320572243
15484.00987,1.097951271,0.2326409582,-0.8510569757,1.408515809
15494.04588,0.7796877618,0.307796628,-0.8770572048,1.213211074
15504.08187,0.6062201692,0.1883727666,-0.5647825599,0.8496861377
15514.11787,0.696051528,0.5992953117,-0.2728287435,0.9581639335
15524.15387,0.6163520783,0.8237719671,-0.03703684866,1.029495928
15534.18988,0.5627667323,0.9520589284,0.2389610857,1.131470282
15544.22588,0.3036443008,0.7863864782,0.4697062486,0.9650013029
15554.262250000002,0.05486091614,0.704988047,0.5603796065,0.9022434094
15564.29825,-0.1310154913,0.6801341645,0.4686338693,0.8362806013
15574.33425,-0.3703600082,0.6301819859,0.3182247716,0.7972219743
15584.37025,-0.6299427617,0.6029673997,0.1936656296,0.8932546917
15594.40625,-0.827184256,0.5362347354,0.07559982061,0.9886843873
15604.44225,-0.91143971,0.2684506773,-0.03192462802,0.9506877999
15614.47825,-0.901004038,-0.04463258279,-0.1285960597,0.9112284513
15624.51425,-0.812730816,-0.1538974186,-0.1832587552,0.8472305271
15634.55025,-0.689758316,-0.2185655589,-0.1761912256,0.7447018101
15644.58625,-0.5444580768,-0.2642719281,-0.001626695395,0.6052081423
15654.622249999999,-0.3333392394,-0.08902361163,0.1629695016,0.3815747769
15664.65925,-0.1602857758,0.005694786049,0.2975425851,0.3380170861
15674.695249999999,-0.1405375358,-0.05401640461,0.382571041,0.4111315755
15684.73125,-0.0105732277,-0.2610869863,0.3008018231,0.3984469153
15694.76725,-0.2399973585,-0.4178908548,0.09528271794,0.4912334424
15704.803249999999,0.09530596063,-0.1356226496,-0.1027981442,0.1950491929
15714.83925,0.5388013342,0.2607221931,-0.1726992685,0.6229831274
15724.875250000001,-0.03166822761,-0.06211526424,-0.1388596773,0.1553807989
15734.91125,-0.04869561195,-0.4101147889,-0.1134886086,0.4283048762
15744.94725,0.1772139037,-0.4321939848,0.1734459579,0.4982769395
15754.983250000001,0.2389983617,-0.357279604,0.2704851794,0.5078692397
15765.01925,-0.1665422966,-0.5270509524,0.09600426435,0.5610132456
15775.05525,-0.3881096698,-0.6530519081,-0.09258188903,0.7652955747
15785.091250000001,-0.1488579775,-0.638034431,-0.2519863433,0.7019570855
15795.12725,-0.1067350745,-0.3303510198,-0.3064098877,0.4630455611
15805.16325,-0.1059546174,-0.04044372886,-0.4508764601,0.4649211314
15815.19925,-0.07280426681,0.3507514436,-0.6927658314,0.7799048234
15825.23525,0.05834600285,0.6952313098,-0.8305806112,1.084718849
15835.27125,0.1388620162,0.6959593613,-0.7889414191,1.061164763
15845.30725,0.1516178633,0.6472476695,-0.613618505,0.9046796073
15855.34325,0.1530850759,0.6367920439,-0.3715537173,0.7529882552
15865.37925,0.1772153655,0.3210790168,-0.1605177641,0.4003285818
15875.41525,0.2365787838,-0.1422821805,-0.05975328147,0.282460961
15885.451249999998,0.3053956881,-0.3619665494,-0.03090311944,0.474595946
15895.48825,0.4465654542,-0.3341854776,0.007089748979,0.5578090201
15905.524249999999,0.6170546213,-0.1627740584,-0.0003701287508,0.638162939
15915.56025,0.7342768233,-0.07551635161,0.008576111197,0.7381996493
15925.59625,0.7146576606,0.01086610012,-0.02159961462,0.7150665614
15935.632249999999,0.6542484677,0.03258644147,-0.07962095082,0.6598806176
15945.66825,0.4589327538,-0.001097558923,-0.07250956714,0.4646268551
15955.70425,0.3531848355,0.04919255219,0.06192025959,0.3619303161
15965.740249999999,0.1945709248,0.05520760121,0.2967093569,0.35908518
15975.776249999999,0.1938142951,0.1328417961,0.4301252764,0.4901210842
15985.81225,0.1142548862,0.2214011114,0.4813498092,0.542005784
15995.84825,0.03922780037,0.1396680914,0.5072336787,0.5275717969
16005.884250000001,-0.0776201798,0.08550726973,0.3819477278,0.3990243755
16015.920250000001,0.06029707253,0.1360366781,0.1547173262,0.2146605827
16025.95625,-0.08799372509,0.02712338788,-0.03157087147,0.09734112056
16035.99225,-0.2472403045,-0.1070315832,-0.2407824934,0.3613305095
16046.02825,-0.2423819992,-0.1305545663,-0.4225607336,0.5043323327
16056.06425,-0.1864460725,-0.03524917211,-0.453325274,0.4914350884
16066.100250000001,-0.1218828714,0.02740206253,-0.4266760039,0.4445882586
16076.136250000001,-0.1036076912,-0.03628021896,-0.2971911675,0.31681761
16086.172250000001,-0.06153317392,-0.05104414612,-0.1612790716,0.1800077089
16096.20825,-0.01989412799,0.03534513954,-0.09343148947,0.1018552819
16106.24425,0.1300850531,0.1023031043,-0.008856777549,0.1657301684
16116.28125,-0.02883612871,0.06027525511,-0.009825661182,0.06753645175
16126.31725,0.06083545491,0.0131925245,-0.02034714103,0.0654904682
16136.353249999998,0.01487648606,-0.04497093558,-0.03309933364,0.05778633725
16146.389249999998,0.03376357734,0.002655512989,0.03163636029,0.0463453363
16156.425250000002,0.1401323238,0.04346224431,0.06589402735,0.1608354989
16166.46125,0.06547112748,0.0588201024,0.1485011512,0.1726234772
16176.49725,0.1168566048,0.05543105621,0.1873956603,0.227695414
16186.53325,0.1314459926,0.00642513983,0.2113493639,0.2489736633
16196.56925,-0.04896443769,-0.1778985761,0.2041912025,0.2752080426
16206.605249999999,-0.004502209872,-0.223877462,0.1295380461,0.2586918887
16216.641249999999,-0.107375637,-0.2399737869,0.0474063009,0.26714098
16226.677250000002,0.001301005483,-0.2100745247,0.01828424335,0.2108727391
16236.71325,0.09103866264,-0.2069193306,0.06760024488,0.2359521998
16246.74925,-0.1071106119,-0.2416408646,0.09561600924,0.2810790136
16256.78525,-0.1287654828,-0.2253989441,0.08184406221,0.2721831811
16266.821249999999,-0.0522684069,-0.07367615975,0.0482927388,0.10243218
16276.85725,-0.2457320152,0.01942192879,0.007953967452,0.2466266413
16286.89325,-0.2583200473,0.02227642983,-0.06280669749,0.2667773742
16296.929250000001,-0.4006111631,-0.0533497398,-0.08612890184,0.4132235309
16306.965250000001,-0.367890729,-0.1074785845,-0.1307209378,0.4049483896
16317.001250000001,-0.3522739854,-0.005511475839,-0.1299216235,0.3755089419
16327.03725,-0.1169859745,0.1181963116,-0.1200141013,0.2050840579
16337.074250000001,-0.03505069569,0.117911406,-0.04925051272,0.1325038261
16347.11025,-0.08185371011,0.06889134664,0.06258333385,0.1239464448
16357.14625,-0.09525406659,0.01990465298,0.1759666926,0.2010815986
16367.18225,-0.01569378063,0.0005805919692,0.2804581904,0.2808975408
16377.218249999998,-0.07368529603,-0.1096331373,0.3448190778,0.3692548498
16387.25425,-0.2138986038,-0.1493971639,0.3862875313,0.46614395
16397.290250000002,-0.2204540634,-0.1372844374,0.3052883917,0.4008091977
16407.326250000002,-0.2525583471,-0.1314269891,0.260443756,0.3858623099
16417.36225,-0.2512526639,-0.2032504586,0.281131205,0.4283379559
16427.39825,-0.2485117815,-0.3334456587,0.3611246234,0.550776821
16437.43425,-0.2500845364,-0.3969165999,0.4212854558,0.6305287447
16447.47025,-0.177864114,-0.3819365085,0.5144438803,0.6649538672
16457.506250000002,-0.1243840179,-0.2350416239,0.5486571085,0.6097053154
16467.542250000002,-0.1039962387,-0.284766492,0.5328111541,0.6130211241
16477.578250000002,-0.04271668777,-0.4277958554,0.5071430469,0.6648519228
16487.61425,-0.1012715824,-0.5425693531,0.4275033849,0.698137938
16497.65025,-0.09129944846,-0.5239780213,0.3519871795,0.6377958377
16507.68625,-0.1869302219,-0.3942772764,0.2841004211,0.5206827516
16517.72225,-0.1615224619,-0.2827768307,0.1271424419,0.349596113
16527.758250000003,-0.1563549851,-0.2781699191,-0.05806109726,0.3243400627
16537.794250000003,-0.07756024584,-0.2407057852,-0.1951835668,0.3194549914
16547.831250000003,-0.03590555862,-0.2700523027,-0.1814548892,0.327327561
16557.8665,-0.01506520495,-0.2205037282,-0.1430579782,0.2632763561
16567.9025,0.02818694159,-0.1722955182,-0.1173208737,0.2103436158
16577.938499999997,-0.03158885166,-0.1273936163,-0.103214466,0.1669736956
16587.9745,-0.05595946178,-0.1061551769,-0.08962495208,0.1497765502
16598.0105,-0.06974222615,-0.1431416482,-0.1060421795,0.1913072225
16608.0465,-0.1241819966,-0.2114122763,-0.1528719449,0.2889397003
16618.0825,-0.1756157134,-0.1487006692,-0.1702106935,0.2862244713
16628.1185,-0.1423696147,-0.2009297353,-0.2452445036,0.3475438566
16638.1545,-0.1677665573,-0.0649923867,-0.4026427782,0.4410111505
16648.190499999997,-0.08038766697,0.06342343256,-0.5618069118,0.5710619187
16658.2265,-0.04138600767,0.0952079284,-0.671232875,0.6792134596
16668.2625,0.07376584142,0.08117835671,-0.7223036259,0.7305845967
16678.2985,0.2355195607,0.1056752119,-0.6737103403,0.7214723394
16688.3345,0.2113806465,0.0831101854,-0.5955038309,0.6373491141
16698.3705,0.09590091482,0.03661575777,-0.5401880014,0.5498552319
16708.406499999997,0.2357363462,-0.01011820469,-0.5309704506,0.5810366791
16718.442499999997,0.4535533154,0.03574306084,-0.6074029148,0.7588981995
16728.4785,0.5875976644,0.03190863954,-0.6219361693,0.8562089553
16738.5145,0.6816435501,0.06631060492,-0.5872996026,0.9021950171
16748.5515,0.9064869721,0.2748999186,-0.7219802749,1.191026496
16758.5875,0.9819863668,0.4925937125,-0.8045067072,1.361681619
16768.6235,0.9573448844,0.6007875942,-0.8251871395,1.399424445
16778.6595,0.9053727852,0.6601263081,-0.8044909197,1.379373866
16788.695499999998,0.7532030909,0.6430140661,-0.7211207342,1.225070242
16798.731499999998,0.623691211,0.5543014258,-0.5278369278,0.9873462512
16808.767499999998,0.5271188897,0.3589918881,-0.1710041606,0.6602816994
16818.8035,0.5082348682,0.1233221635,0.322474528,0.614410985
16828.839500000002,0.5590933652,-0.009169091955,0.8220220417,0.9941779017
16838.875500000002,0.668173027,-0.09743171588,1.142825435,1.327402768
16848.9115,0.9198636474,-0.1037753236,1.159855451,1.483975443
16858.9475,1.233503617,-0.1163641596,1.028964944,1.610540483
16868.9835,1.451040943,-0.0848212086,0.7378800237,1.630086312
16879.0195,1.544296285,-0.08945673499,0.4342358691,1.606678037
16889.055500000002,1.525754618,-0.1531951863,-0.1012246585,1.536763597
16899.091500000002,1.401076193,-0.1447930298,-0.979939549,1.715884915
16909.1275,1.08001099,-0.1549595471,-1.730381146,2.045642958
16919.1635,0.7074211465,-0.1873341914,-1.660249057,1.814377499
16929.1995,0.2285344769,-0.2648576364,-0.9053056884,0.9705441588
16939.2365,-0.1584193446,-0.3067852424,-0.05751321316,0.3500309177
16949.2725,-0.2245884834,-0.2106312528,0.364105534,0.4768420613
16959.3085,-0.324187616,-0.142543679,0.5385168672,0.644528298
16969.3445,-0.3555998817,-0.2062841037,0.5906518114,0.7196346084
16979.380500000003,-0.518734421,-0.2761985304,0.5051731199,0.7749651016
16989.4165,-0.5576033485,-0.3453700317,-0.1611703134,0.6754093744
16999.4525,-0.4845787878,-0.3220595584,-0.6955660629,0.9068357672
17009.4885,-0.5220190944,-0.06942333363,-0.7935151112,0.952360103
17019.5245,-0.4668412592,0.1359677541,-0.4803060812,0.6834631834
17029.5605,-0.452366623,0.1359560597,0.0006654131413,0.4723558558
17039.5965,-0.5255704008,0.05200802308,0.4118837178,0.6697591191
17049.6325,-0.6319322768,0.06982050575,0.5681499714,0.8526474626
17059.6685,-0.8176486167,0.09359429788,0.5093936402,0.9678796587
17069.7045,-0.9688875805,0.08999895461,0.4262637752,1.062329403
17079.7405,-1.092243219,-0.03114782542,0.304794302,1.134400724
17089.7765,-1.213415362,-0.1289014671,0.1178985786,1.225925162
17099.8125,-1.200052427,-0.1868687896,0.01982206106,1.214676371
17109.8485,-1.105019386,-0.244204759,0.04129771471,1.132435123
17119.8855,-0.9641710702,-0.1753221101,0.1493273628,0.9912932745
17129.921499999997,-0.8717087567,-0.1786678138,0.1969336385,0.9113622782
17139.9575,-0.8032533565,-0.190543655,0.2009804964,0.8496564006
17149.9935,-0.7555899243,-0.2317247909,0.2149173349,0.8190250138
17160.0295,-0.6685756078,-0.2568686952,0.2069405633,0.745519461
17170.0655,-0.499076959,-0.1727905947,0.1423007637,0.5469770635
17180.1015,-0.3105067393,-0.1021381032,0.07627868235,0.3356561703
17190.137499999997,-0.2214947216,-0.09035132244,-0.01499927759,0.2396836488
17200.173499999997,-0.07346997231,-0.003515528776,-0.03700878203,0.08233981857
17210.2095,0.3312554379,0.2067954793,0.1961249685,0.4369891745
17220.2455,0.3496686123,0.2367745194,0.3148485893,0.5267446684
17230.2815,0.3562571087,0.1828889554,0.09853844762,0.41240432
17240.3175,0.3882304148,0.2707022208,-0.02925420463,0.4741923194
17250.353499999997,0.3301120149,0.1956652677,-0.2119311619,0.4383761589
17260.389499999997,0.5128209856,0.1841519174,-0.06563148737,0.5488212679
17270.4255,0.4922042879,0.1457843521,0.08759889185,0.5207606977
17280.4615,0.4121972747,0.1434438944,0.1979364359,0.4792301919
17290.4975,0.4005013816,0.3353164022,0.1360635388,0.5397700741
17300.5335,0.1888352448,0.2673384272,-0.08622830451,0.3384729012
17310.5705,0.2386887516,0.1763003859,-0.2931618512,0.4171306956
17320.6065,0.3893878712,0.2600578946,-0.4525540262,0.6511974888
17330.642499999998,0.3134309319,0.3228880723,-0.452718333,0.6383177464
17340.678499999998,0.2466894968,0.3609311537,-0.453797729,0.6301264828
17350.7145,0.1769525331,0.4085084856,-0.5175469977,0.682675821
17360.750500000002,0.2378651713,0.6229212789,-0.5501206666,0.864432477
17370.786500000002,0.1698519668,0.6529211497,-0.4844692987,0.8305818562
17380.822500000002,0.01610498607,0.6493536173,-0.4509267461,0.7907303088
17390.8585,0.016661641,0.779441594,-0.366751399,0.8615761124
17400.8945,-0.0840611802,0.8879280558,-0.3088475919,0.943858755
17410.9305,-0.04610178709,1.051742042,-0.2519951141,1.082491679
17420.9665,-0.1909687476,0.9240552239,-0.3034511966,0.991175942
17431.002500000002,-0.2683657099,0.9618536724,-0.3309845656,1.052013985
17441.038500000002,-0.7795624852,0.8831615518,-0.08553307056,1.181104526
17451.074500000002,-1.503617498,0.6855387459,0.4110487354,1.702876982
17461.1105,-2.061060487,0.414081613,0.5393050718,2.170318842
17471.1465,-2.275755335,0.2677200129,0.09793735385,2.293540511
17481.1835,-2.233968355,0.4176229061,-0.1799170715,2.2797793
17491.2195,-1.708231162,0.7628117473,0.006948831081,1.870824351
17501.2555,-1.696878939,0.8721882284,0.3442016119,1.938707092
17511.2915,-1.616989163,1.032736179,0.3826593339,1.95643199
17521.327500000003,-1.388765319,1.298519539,0.3937631965,1.941615709
17531.3635,-1.031291697,1.486350232,0.2024580878,1.820381513
17541.3995,-0.2127364697,1.33966011,0.06212666631,1.357868086
17551.4355,0.8141917428,0.9239854959,0.3428146523,1.278350217
17561.47233,1.648734866,0.7009111489,1.733769023,2.493102108
17571.50833,1.644289374,0.3670289956,2.583103409,3.083961908
17581.54433,1.419869144,-0.429142798,3.154470518,3.485810692
17591.58033,1.580659096,-0.9192664274,3.506831335,3.954920979
17601.616329999997,0.9808223324,-1.444632103,2.192266159,2.802678232
17611.652329999997,-0.1365615754,-1.778360766,0.2302861565,1.798401455
17621.68833,0.1072841281,-1.645310736,0.0786280936,1.650678552
17631.72433,0.618738327,-1.394664429,0.9276648563,1.785633801
17641.76033,0.9552312621,-1.33026992,1.278600706,2.077716196
17651.79733,1.170131932,-1.290120891,0.8621672702,1.943438462
17661.83333,0.8989485955,-1.247998719,0.03620245099,1.538479768
17671.86933,0.7473884735,-1.207620405,-0.0628774488,1.421580159
17681.905329999998,0.7281110805,-1.14101543,0.375300613,1.404604039
17691.941329999998,0.7656481585,-1.092617587,0.6297936577,1.475354312
17701.977329999998,0.7967705485,-0.9084375302,0.7302792281,1.411881654
17712.01333,0.7689594367,-0.5585962057,0.2030773079,0.9718892578
17722.04933,0.6294252831,-0.1947673912,-0.6210397911,0.9054285978
17732.08533,0.3137911204,-0.09137692407,-1.179259436,1.223710516
17742.121329999998,-0.1347382674,-0.1661462939,-1.521486443,1.536450451
17752.15733,-0.3656766808,-0.2347990376,-1.60656577,1.664302736
17762.19333,-0.3940614045,-0.1174822569,-1.647954701,1.698482019
17772.22933,-0.1598795405,0.1607845433,-1.619426721,1.635223545
17782.265330000002,-0.06502951652,0.2593203597,-1.474475414,1.498517145
17792.301330000002,-0.2806204507,-0.06335370451,-1.64835582,1.673271777
17802.337330000002,-0.2262819833,-0.3685000089,-1.874051328,1.923295134
17812.37333,-0.1931908357,-0.5654289696,-1.96101872,2.050030985
17822.41033,-0.2662593967,-0.3719909428,-2.226267133,2.272781705
17832.44633,-0.2244275388,-0.01248278216,-2.249750136,2.260950954
17842.48233,-0.08080296546,0.2487371917,-2.126941066,2.142960011
17852.51833,-0.06664948761,0.478438919,-2.271285431,2.322086016
17862.55433,-0.2519249475,0.5998557673,-2.275833396,2.367004598
17872.590330000003,-0.5167073375,0.5906192131,-1.768921899,1.935174982
17882.62633,-0.6655406106,0.6093656789,-1.356365166,1.629109358
17892.66233,-1.164192623,0.2009869283,-1.615276952,2.001214591
17902.69833,-1.252827934,-0.2740056418,-1.613803453,2.061314753
